,self_acceptUp,self_cue_times,self_decision_times,self_decisions,self_punishment_values,self_response_times,self_reward_values,self_trial_times,self_punishment_reward_ratio,self_prob_reject,self_prob_accept,self_SV,harm_other_acceptUp,harm_other_cue_times,harm_other_decision_times,harm_other_decisions,harm_other_punishment_values,harm_other_response_times,harm_other_reward_values,harm_other_trial_times,harm_other_punishment_reward_ratio,harm_other_prob_reject,harm_other_prob_accept,harm_other_SV,harm_self_acceptUp,harm_self_cue_times,harm_self_decision_times,harm_self_decisions,harm_self_punishment_values,harm_self_response_times,harm_self_reward_values,harm_self_trial_times,harm_self_punishment_reward_ratio,harm_self_prob_reject,harm_self_prob_accept,harm_self_SV,other_acceptUp,other_cue_times,other_decision_times,other_decisions,other_punishment_values,other_response_times,other_reward_values,other_trial_times,other_punishment_reward_ratio,other_prob_reject,other_prob_accept,other_SV
0,1,0.008127190638333559,1.6096151475794613,1,17,2.6544667943380773,82,1.0416532345116138,0.2073170731707317,7.66053886991358e-14,0.9999999999999234,30.20010897208572,1,0.008902300149202347,1.7947445851750672,1,42,2.8365499186329544,39,1.0399509179405868,1.0769230769230769,0.006904203560034405,0.9930957964399656,4.968696693425884,0,0.008676720317453146,4.026344629004598,0,87,5.07251498894766,85,1.0431276015006006,1.0235294117647058,0.7562484634071287,0.24375153659287124,-1.1322205636558043,1,0.009812915232032537,1.7758986055850983,1,43,2.820863239467144,93,1.0418681474402547,0.46236559139784944,1.5584644685873172e-11,0.9999999999844154,24.88473500142175
1,0,5.154680522158742,1.6126144491136074,1,37,7.791123458184302,52,6.175339041277766,0.7115384615384616,2.263333597984918e-06,0.999997736666402,12.998669524795618,0,5.33834428479895,3.364223531447351,1,96,9.724297345150262,89,6.358401915989816,1.0786516853932584,0.005119950496976444,0.9948800495030236,5.269477406182784,0,7.572800222784281,3.1470894291996956,1,28,11.743844558019191,18,8.593537358567119,1.5555555555555556,0.2970638688150533,0.7029361311849467,0.8613188736850401,0,5.3209422514773905,1.1129624978639185,1,35,7.457154866773635,62,6.341027932241559,0.5645161290322581,8.40090348397382e-08,0.9999999159909652,16.292341402262032
2,1,10.29119180329144,1.3292464292608202,1,53,12.641350381076336,55,11.311239953618497,0.9636363636363636,5.6409238170740394e-05,0.9999435907618293,9.782821204690798,1,12.226135167758912,3.3145327852107584,1,54,16.562331506982446,31,13.246097984723747,1.7419354838709677,0.39224379596546866,0.6077562040345313,0.43789024638931345,1,14.242181747220457,2.0628640484064817,1,26,17.314012490212917,84,15.24809343693778,0.30952380952380953,0.00012969100176385417,0.9998703089982361,8.950226146938812,0,9.957446026615798,2.4302133009769022,0,14,13.410960408393294,7,10.977730423212051,2.0,0.04872547754127565,0.9512745224587243,2.9716006419479766
3,0,15.144332299940288,2.263595622498542,0,86,18.431329743005335,59,16.16448869649321,1.4576271186440677,0.09147454005278688,0.9085254599472131,2.295762228827866,1,19.064137329813093,1.1128712384961545,1,15,21.198948664590716,19,20.084199701901525,0.7894736842105263,0.0024209315806221765,0.9975790684193778,6.021178995444015,1,19.814633920788765,1.229267209302634,1,6,22.067084087990224,8,20.83500918140635,0.75,0.03340533312445926,0.9665946668755407,3.3650636803688845,0,15.911260259803385,2.2297590603120625,1,60,19.162206430453807,70,16.931383866351098,0.8571428571428571,5.9801905958334345e-06,0.9999940198094042,12.027052138088216
4,0,20.93177892686799,1.5656105112284422,1,71,23.517771414481103,69,21.949362687766552,1.0289855072463767,3.313796532178337e-05,0.9999668620346782,10.314797805782185,0,23.700760018080473,1.2459123060107231,1,45,25.968683136161417,42,24.720946044195443,1.0714285714285714,0.006439348487055185,0.9935606515129448,5.03886774006333,0,24.567560136318207,1.1629740335047245,1,15,26.753038017544895,42,25.587618162855506,0.35714285714285715,0.0028576658788211917,0.9971423341211788,5.85488835684756,1,21.66510183084756,1.179058538749814,1,42,23.868271324783564,39,22.686002917122096,1.0769230769230769,0.0019054281132856454,0.9980945718867144,6.261141318517528
5,1,26.018341882154346,1.8461317224428058,1,46,28.888078092597425,40,27.038936006370932,1.15,0.002889355305943142,0.9971106446940569,5.843828341720691,0,28.470363329630345,1.3789897188544273,0,50,30.871874674223363,7,29.4912624405697,7.142857142857143,0.9886504393060164,0.011349560693983577,-4.467161782713679,0,29.253874756395817,2.563662071246654,1,35,32.84098052512854,62,30.274461769498885,0.5645161290322581,0.007687141436257372,0.9923128585637426,4.860489449572443,0,26.368453447706997,2.6472794534638524,0,86,30.038877537474036,59,27.38842140045017,1.4576271186440677,0.30429737383039923,0.6957026261696008,0.8269168811152134
6,0,31.388557300902903,1.4069999242201447,1,54,33.824718637391925,80,32.41466647386551,0.675,4.264895547834158e-09,0.9999999957351045,19.27284814258076,1,33.37349837413058,1.4791957037523389,1,43,35.87531762896106,97,34.39444054663181,0.44329896907216493,7.526502643351307e-09,0.9999999924734974,18.704835351895635,1,35.34136057365686,1.2123475461266935,1,15,37.57773374160752,42,36.36213919101283,0.35714285714285715,0.0028576658788211917,0.9971423341211788,5.85488835684756,0,32.53916119132191,1.262947326991707,1,71,34.82494856324047,69,33.55922119272873,1.0289855072463767,0.0001900939335597318,0.9998099060664403,8.56780210881267
7,0,36.32521364884451,1.479416147340089,1,38,38.82828959217295,43,37.34571374813095,0.8837209302325582,0.00010009233211272228,0.9998999076678873,9.209317379506025,0,38.37693816842511,1.1624442567117512,0,51,40.56188666820526,7,39.39763224264607,7.285714285714286,0.9908457984948537,0.009154201505146356,-4.684345965513846,0,40.077829346526414,1.496384008321911,1,37,42.597456361632794,52,41.098007866647094,0.7115384615384616,0.03385773709626594,0.9661422629037341,3.3511435501637257,1,37.32566915405914,1.1284101651981473,1,6,39.47641447558999,8,38.34596974775195,0.75,0.0037475255973676846,0.9962524744026323,5.582904932328227
8,1,41.32859892491251,1.5789201091974974,1,74,43.93171729752794,60,42.349692405667156,1.2333333333333334,0.0025300047690124394,0.9974699952309876,5.977000880619866,1,43.06316113425419,0.9628101619891822,1,25,45.04792324453592,37,44.08363041933626,0.6756756756756757,0.0002802134313426574,0.9997197865686573,8.179678737669997,1,45.09791463240981,2.7143611712381244,0,53,48.83506488474086,40,46.1176937459968,1.325,0.6757166723191406,0.3242833276808594,-0.7341562625791752,0,41.97876034677029,1.7802146445028484,1,38,44.78184980107471,43,42.99871565727517,0.8837209302325582,0.00015189058187115023,0.9998481094181288,8.792198250331257
9,0,46.43202228471637,1.5459108045324683,0,51,49.00182518083602,7,47.45263655669987,7.285714285714286,0.9997787713916426,0.00022122860835742869,-8.416092711057706,1,47.54958131490275,0.8794100638478994,1,19,49.4509184374474,37,48.56988467415795,0.5135135135135135,7.61458495880385e-05,0.999923854150412,9.482783834471395,1,51.33569263666868,3.7148814662359655,1,14,56.073295233771205,8,52.35532873822376,1.75,0.11635939623090097,0.883640603769099,2.0273667783380316,0,47.28239854052663,1.7461556633934379,1,59,50.05227049347013,65,48.30298476340249,0.9076923076923077,2.5954945034767363e-05,0.9999740450549652,10.559122451118135
10,1,51.50209856266156,1.4299462400376797,1,4,53.9552230197005,22,52.52204597229138,0.18181818181818182,3.260836145413393e-05,0.9999673916385459,10.33090920726236,1,51.95276337163523,2.3305086488835514,1,14,55.30483759846538,8,52.97270762035623,1.75,0.026803766297098686,0.9731962337029013,3.5920433297716805,1,58.57354096183553,2.146369233261794,1,33,61.74496771581471,25,59.59427177673206,1.32,0.29991482644636547,0.7000851735536345,0.8477034816464566,1,52.551190397236496,1.3463782407343388,1,43,54.906048617791384,97,53.556659223511815,0.44329896907216493,3.841371665203042e-12,0.9999999999961586,26.285191608627443
11,1,56.455415019299835,1.2464420828036964,1,42,58.725103268865496,39,57.47558879852295,1.0769230769230769,0.0014278623528508616,0.9985721376471491,6.550147928552019,0,57.806655273307115,1.6796503392979503,1,68,60.50839306693524,63,58.827126138377935,1.0793650793650793,0.006085775777597724,0.9939142242224023,5.095696700925183,1,64.24362490419298,1.8302874146029353,1,54,67.09622653760016,78,65.26374693075195,0.6923076923076923,0.02756291993282467,0.9724370800671753,3.5633339854907624,0,57.405674890149385,1.6803333996795118,0,62,60.10916477814317,17,58.425653509330004,3.6470588235294117,0.9991709284208969,0.0008290715791030159,-7.094374647195419
12,1,61.225225342437625,1.3127617281861603,1,56,63.56146316276863,46,62.24566223239526,1.2173913043478262,0.004299172485528802,0.9957008275144712,5.445024279528146,0,63.009739433880895,3.297269814182073,0,60,67.32967467559502,40,64.03076140861958,1.5,0.2141724331683147,0.7858275668316853,1.299955934702183,0,69.59761359589174,3.364612666424364,1,60,73.9849264556542,70,70.61754480795935,0.8571428571428571,0.16518777394328832,0.8348122260567117,1.6201239698468237,0,62.609440135769546,1.4625506070442498,1,37,65.0952290087007,52,63.62965895188972,0.7115384615384616,4.9018757903862564e-06,0.9999950981242096,12.22588770985007
13,1,66.06188864354044,0.9796433071605861,1,46,68.06448656320572,36,67.0816855346784,1.2777777777777777,0.013632821445653365,0.9863671785543466,4.281548450422719,1,69.829846132081,1.4958625282160938,1,46,72.3329473589547,36,70.83544335328043,1.2777777777777777,0.03298259911387891,0.9670174008861211,3.378236367187256,0,76.48547203466296,2.6633050944656134,1,45,80.17245351709425,42,77.50619139289483,1.0714285714285714,0.30184553238517875,0.6981544676148213,0.838524974231876,0,67.5959073281847,1.1124465484172106,1,14,69.73192478343844,57,68.61655360041186,0.24561403508771928,1.2787493286481322e-09,0.9999999987212507,20.47738332239045
14,1,70.56480972282588,1.2624704893678427,1,10,72.85107985930517,44,71.5855662166141,0.22727272727272727,3.134803339133185e-08,0.9999999686519666,17.27811427122612,0,74.83472750289366,1.0959227359853685,1,45,76.95268238382414,92,75.85510118305683,0.4891304347826087,3.869349407548128e-08,0.9999999613065059,17.067594324094213,1,82.67262062802911,2.4583301725797355,0,69,86.15988979395479,61,83.69858678849414,1.1311475409836065,0.7195467693647108,0.28045323063528915,-0.9422145514487822,1,72.23236330086365,1.7469094395637512,0,94,75.00147831765935,46,73.25219061225653,2.0434782608695654,0.9974920418863003,0.0025079581136997326,-5.985775249118799
15,1,75.35138168558478,1.1299911984242499,1,66,77.50430853292346,59,76.37103675026447,1.11864406779661,0.00041774980211106705,0.9995822501978889,7.780210027106829,0,79.45452415756881,1.7302714544348419,1,87,82.20642795553431,85,80.47433764114976,1.0235294117647058,0.0019041056695300318,0.99809589433047,6.261836924667003,1,88.66037690406665,1.6967074843123555,1,45,91.38024048134685,40,89.68036777013913,1.125,0.35353406964880907,0.6464659303511909,0.6035406394516758,1,77.5024971794337,1.3797118901275098,1,17,79.90536871831864,82,78.52273100800812,0.2073170731707317,4.718447854656915e-13,0.9999999999995282,28.382126307758167
16,1,80.00450764363632,1.646046073641628,1,6,82.67406615521759,8,81.02515075495467,0.75,0.013196949026758165,0.9868030509732418,4.314484807895059,1,84.70834597526118,1.2126995450817049,1,53,86.94276754325256,55,85.72834276780486,0.9636363636363636,0.0016116832119305036,0.9983883167880695,6.428863189493087,0,93.88052453007549,1.5800124523229897,1,22,96.482981571462,31,94.90042611258104,0.7096774193548387,0.03254674558432913,0.9674532544156709,3.391989726279473,0,82.40571597637609,1.6801520669832826,0,62,85.10879342118278,17,83.42569380579516,3.6470588235294117,0.9991709284208969,0.0008290715791030159,-7.094374647195419
17,1,85.17432254971936,1.0622370871715248,1,25,87.26048056781292,37,86.19531133957207,0.6756756756756757,2.9508915474818487e-05,0.9999704910845252,10.430788611441365,1,89.44444655161351,1.479444987140596,1,40,91.94597425172105,93,90.46484946645796,0.43010752688172044,1.026947649140908e-08,0.9999999897305235,18.394089778582053,0,98.98409327259287,2.6802002638578415,0,41,102.68788498686627,22,100.00444838451222,1.8636363636363635,0.6989851551048099,0.3010148448951901,-0.8424699225546947,1,87.60923430882394,1.1291631506755948,1,58,89.76195098413154,58,88.62974151968956,1.0,0.000226857534059266,0.9997731424659407,8.390961457501263
18,1,89.76101864036173,3.3311020298860967,1,14,94.11543083749712,8,90.78123587649316,1.75,0.10710056674875523,0.8928994332512448,2.1207056885833713,0,94.44779469165951,2.9640348507091403,1,60,98.43371788552031,61,95.46802931046113,0.9836065573770492,0.0017401868217915561,0.9982598131782084,6.3520210999678515,0,105.18807935668156,3.131132133770734,0,58,109.34225420141593,58,106.20797856897116,1.0,0.36710835364622174,0.6328916463537783,0.5446421866733387,1,92.2624456002377,1.39657584996894,1,3,94.68176509998739,18,93.28224802250043,0.16666666666666666,4.859179845273509e-05,0.9999514082015473,9.932007204436232
19,0,96.61542096082121,2.8497200598940253,1,96,100.48582008294761,89,97.63323859777302,1.0786516853932584,1.2741448007114187e-05,0.9999872585519929,11.270637514420482,0,100.93559758504853,1.7134078894741833,1,28,103.67077766964212,18,101.95545768598095,1.5555555555555556,0.04939684687877677,0.9506031531212232,2.9572100873625278,0,111.84243711456656,1.2794952387921512,1,6,114.14534484082833,26,112.86260575801134,0.23076923076923078,0.004152338221622087,0.9958476617783779,5.4799226933906855,1,97.18264253018424,1.4461899548768997,1,53,99.6518277884461,55,98.20256307534873,0.9636363636363636,0.00015782634139405172,0.999842173658606,8.753857395699926
20,1,110.01224925462157,4.113596175331622,1,98,115.14537763083354,73,111.02880980819464,1.3424657534246576,0.011283421754279321,0.9887165782457207,4.473073169403389,1,113.19855202361941,1.1614937405101955,1,45,115.37835999205709,40,114.21523425541818,1.125,0.010377139326755103,0.9896228606732449,4.557718676704702,1,123.67183840787038,1.5612522005103528,0,98,126.25353500433266,73,124.68912863824517,1.3424657534246576,0.9876474076665179,0.01235259233348211,-4.381459812629421,1,109.17829844169319,1.045519299339503,1,40,111.24332781834528,93,110.19447420584038,0.43010752688172044,6.674882868651366e-12,0.9999999999933251,25.73266945955711
21,0,117.64631866523996,1.680002338718623,1,77,120.34928786335513,72,118.66633955622092,1.0694444444444444,5.321200132768489e-05,0.9999467879986723,9.841173384774624,1,117.88004413619637,1.0128197227604687,1,3,119.91499239904806,18,118.90036211302504,0.16666666666666666,0.0002278000053825835,0.9997721999946174,8.386814657366898,1,128.75333944894373,1.4467292125336826,1,28,131.2234199149534,82,129.77352942572907,0.34146341463414637,0.00022916992870514186,0.9997708300712949,8.380817586651109,1,113.74173058755696,1.0957153285853565,1,16,115.8461186857894,10,114.7474534381181,1.6,0.030571146657679238,0.9694288533423208,3.4566504426466262
22,1,122.84972480079159,2.6306387027725577,1,54,126.50314981956035,31,123.86976623442024,1.7419354838709677,0.4663212064201362,0.5336787935798638,0.13491946698851356,1,122.41637590201572,1.21265411330387,0,41,124.65098749427125,7,123.43672074284405,5.857142857142857,0.9250137707147074,0.07498622928529262,-2.5125041375121686,1,133.72381813637912,2.34653191966936,1,16,137.09364560525864,10,134.7441874705255,1.6,0.12698021990889374,0.8730197800911063,1.927926887610519,0,118.3462964631617,1.196248818654567,1,54,120.5643874029629,80,119.36630313191563,0.675,3.308783380617797e-08,0.9999999669121662,17.224100147767565
23,0,129.00378468213603,1.4290522173978388,1,53,131.45696602761745,57,130.02471026219428,0.9298245614035088,2.5829663450771534e-05,0.9999741703365492,10.563961150337647,0,127.15298610692844,1.3628179053775966,1,37,129.5379349226132,52,128.17343050288036,0.7115384615384616,0.00010285509760055156,0.9998971449023994,9.182086519258718,1,139.59378940751776,2.397157774772495,1,50,143.01454021269456,62,140.61437721038237,0.8064516129032258,0.08688251424523152,0.9131174857547685,2.3523077582645886,1,123.06649544741958,1.6962124733254313,1,25,125.78585848305374,37,124.08671149797738,0.6756756756756757,3.1486006399239486e-05,0.9999685139936008,10.365935865628975
24,1,133.95715565700084,1.6966754840686917,1,12,136.67708086408675,9,134.97717615263537,1.3333333333333333,0.044799664589188826,0.9552003354108112,3.059720441235798,1,132.03966686921194,0.9956476152874529,1,15,134.05788035690784,56,133.06046879524365,0.26785714285714285,3.305734386227499e-07,0.9999996694265614,14.922436667157552,0,145.5145836691372,1.663621143437922,1,45,148.2016706331633,92,146.5348961148411,0.4891304347826087,0.0012133775334361996,0.9987866224665638,6.713133343736919,0,128.28659329609945,1.8299776869826019,1,77,131.13977013761178,72,129.3065170017071,1.0694444444444444,0.0003624514193986128,0.9996375485806014,7.922257590981729
25,1,139.17727128323168,1.2462737862952054,1,15,141.44683627411723,19,140.19737869268283,0.7894736842105263,0.00214439097808905,0.997855609021911,6.142752999739021,1,136.55929230432957,0.8459875253029168,1,15,138.42700935853645,42,137.57935625640675,0.35714285714285715,9.593710621036422e-06,0.999990406289379,11.554393224076255,0,150.70187962055206,1.5458345580846071,0,96,153.2716153562069,89,151.7226293985732,1.0786516853932584,0.897261544890065,0.10273845510993497,-2.167160908880113,1,133.64000717410818,1.2615922684781253,1,53,135.9246741537936,40,134.6600731019862,1.325,0.029251896781137376,0.9707481032188626,3.5021225958824225
26,0,143.9471155819483,1.6818804573267698,1,15,146.65056082839146,42,144.96538911899552,0.35714285714285715,2.697250730543388e-07,0.999999730274927,15.125862374936446,1,140.928905650042,1.0624049878679216,1,54,143.01351937558502,78,141.94945276202634,0.6923076923076923,7.929653921046054e-06,0.999992070346079,11.744893235318905,0,155.77188123203814,1.9301607580855489,1,54,158.72521072579548,80,156.79196928348392,0.675,0.021917292008428624,0.9780827079915714,3.798318320270961,1,138.42655543331057,1.11294788075611,1,54,140.5626274072565,78,139.44652457116172,0.6923076923076923,6.664612639539769e-08,0.9999999333538736,16.5238688439632
27,0,149.15062680328265,1.71283742133528,1,71,151.887180514168,64,150.17125055706128,1.109375,0.00023353432179185063,0.9997664656782081,8.36194794165995,0,145.5153074208647,0.8796075941063464,1,54,147.41651061782613,80,146.53524100314826,0.675,4.901118077493827e-06,0.9999950988819225,12.226042298666119,1,161.22541062626988,2.113841508049518,1,58,164.3622679808177,58,162.24536080146208,1.0,0.36710835364622174,0.6328916463537783,0.5446421866733387,0,143.06303036911413,1.8967974791303277,1,87,145.9829452256672,76,144.08300464274362,1.144736842105263,0.0015068372192693635,0.9984931627807306,6.496234407942263
28,0,154.38744085934013,1.2623085142113268,1,45,156.672118505463,42,155.40809661289677,1.0714285714285714,0.001007585131073352,0.9989924148689266,6.899190677283652,1,149.9179241452366,1.0963889071717858,1,14,152.0361998155713,57,150.93813427025452,0.24561403508771928,2.0915387932696206e-07,0.9999997908461207,15.380195382015296,1,166.86256862198934,1.496809489093721,1,15,169.38235129136592,56,167.8825120809488,0.26785714285714285,0.0005529009125582185,0.9994470990874418,7.499778700308962,1,148.48342443443835,1.0295228930190206,1,4,150.53589127305895,22,149.5030881902203,0.18181818181818182,1.5889737014163074e-05,0.9999841102629858,11.049821238088152
29,1,159.17390220519155,1.713426852133125,1,58,161.91060682898387,58,160.19390294747427,1.0,6.885635518061317e-05,0.9999311436448194,9.583419173594228,0,154.53789541637525,0.8959500738419592,1,38,156.4557516113855,43,155.55802336893976,0.8837209302325582,0.0011128343993517253,0.9988871656006483,6.7997315513438465,1,171.88263731542975,1.563371306285262,1,17,174.4689577035606,82,172.90255588525906,0.2073170731707317,3.642747519194689e-05,0.999963572524808,10.220150826945355,1,153.03690144326538,1.3628226458095014,1,50,155.4224930233322,62,154.05664579151198,0.8064516129032258,5.829271414903303e-06,0.9999941707285851,12.052612707837783
30,1,164.40931419003755,1.662731861229986,1,19,167.08062321599573,37,165.4148023747839,0.5135135135135135,5.693823057928427e-06,0.9999943061769421,12.076122950931417,1,158.95757995266467,0.8960839994251728,1,55,160.87546143122017,95,159.97772173210979,0.5789473684210527,1.6497427968165113e-07,0.9999998350257203,15.617476090939466,0,176.9692429373972,1.1834136885590851,1,55,179.17235554242507,60,177.98559766402468,0.9166666666666666,0.2173353335927447,0.7826646664072553,1.2812628597151086,0,157.9229216640815,1.9635971230454743,1,9,160.90939675783738,7,158.94292635750026,1.2857142857142858,0.012311378882841395,0.9876886211171586,4.384843540109937
31,0,169.58103170897812,1.9126643054187298,0,53,172.51723571214825,15,170.60181664768606,3.533333333333333,0.997099529730021,0.0029004702699790166,-5.839977708289595,1,163.3771925875917,0.8796095694415271,1,52,165.27845820458606,68,164.39717002166435,0.7647058823529411,5.693654121796676e-05,0.999943063458782,9.773516284125176,1,181.67241796199232,1.1582052544690669,1,42,183.8585299155675,39,182.6975347418338,1.0769230769230769,0.27136961342546484,0.7286303865745352,0.9876848103231456,1,163.409939176403,1.0290255113504827,1,24,165.4627540637739,69,164.43054791772738,0.34782608695652173,3.233502354760276e-10,0.9999999996766498,21.852285059474024
32,0,175.017952747643,1.362454054877162,1,56,177.40447785612196,59,176.038521587383,0.9491525423728814,2.692485146749135e-05,0.9999730751485325,10.522433926250802,1,167.78014195337892,1.1957182521000504,0,82,169.99826805386692,40,168.80087434872985,2.05,0.9700580697208251,0.02994193027917494,-3.4780960869015134,0,186.3589471001178,1.6801935485564172,0,77,189.06226790184155,72,187.37889845995232,1.0694444444444444,0.7285933706502381,0.27140662934976184,-0.9874976121885353,1,167.96285401377827,1.0128126116469502,1,45,169.99888158310205,40,168.9830064601265,1.125,0.0031308617086196477,0.9968691382913804,5.763311232941536
33,1,179.90440832544118,1.1789728100411594,1,14,182.10724636306986,57,180.92524343635887,0.24561403508771928,5.85453463486374e-10,0.9999999994145465,21.258634417127055,1,172.4998739757575,0.9620145098306239,1,10,174.484198753722,44,173.5207726918161,0.22727272727272727,2.0017971553709657e-06,0.9999979982028446,13.121463201398928,1,191.56252350611612,2.963588431943208,0,62,195.54967928957194,43,192.58307772921398,1.441860465116279,0.8683660954007624,0.13163390459923766,-1.8865887751935841,1,172.49927466828376,2.162700651679188,0,97,175.68350455258042,61,173.51989368116483,1.5901639344262295,0.8294856267616575,0.17051437323834256,-1.5819861881988155
34,1,184.60768488049507,1.162942033726722,1,28,186.79360760003328,82,185.62768522789702,0.34146341463414637,1.5640821970919205e-12,0.9999999999984359,27.183721919499494,0,176.98608121834695,1.6457399018108845,1,14,179.6546295597218,7,178.00723040290177,2.0,0.03384709939708108,0.9661529006029189,3.3514687980923634,1,198.04991593118757,1.6635267231613398,1,46,200.73640121752396,40,199.07002571085468,1.15,0.3926161547237921,0.6073838452762079,0.4363285266978201,1,178.18639600276947,1.2123625581152737,1,52,180.42119050770998,68,179.20711457077414,0.7647058823529411,1.2554572313971946e-06,0.9999987445427686,13.588009468467238
35,0,189.2940121423453,1.2794612632133067,1,7,191.5967334001325,54,190.3144822176546,0.12962962962962962,2.771447515925729e-10,0.9999999997228552,22.0064811770294,0,182.1563318767585,1.5298259044066072,1,59,184.70801688963547,65,183.17650368064642,0.9076923076923077,0.0005356448563946792,0.9994643551436053,7.531503409485367,1,203.23691914230585,2.096286586485803,0,72,206.35729456041008,51,204.2575970189646,1.411764705882353,0.9320600212799496,0.06793997872005038,-2.618772563611349,1,182.92298882454634,1.2459992193616927,1,74,185.19106680620462,60,183.9433818627149,1.2333333333333334,0.010263798084179432,0.9897362019158206,4.568815490025065
36,0,194.0972094484605,2.062904739752412,1,60,197.18396953912452,70,195.1180651029572,0.8571428571428571,1.0982251668067988e-06,0.9999989017748332,13.721814067723587,1,187.21033550146967,3.0304888165555894,1,87,191.26240964978933,89,188.2302761953324,0.9775280898876404,0.0007282518887533618,0.9992717481112466,7.224135051384331,1,208.85733406664804,1.1123785977251828,0,97,210.99326934944838,61,209.8778973761946,1.5901639344262295,0.996403365839056,0.0035966341609440073,-5.624153708556761,1,187.69280665414408,1.3291958617046475,1,28,190.04436730220914,82,188.71346556814387,0.34146341463414637,1.056799092680194e-11,0.999999999989432,25.273191407252266
37,1,199.6843235134147,1.5738949361257255,1,87,202.28609156887978,89,200.71050063660368,0.9775280898876404,1.0799021707974532e-06,0.9999989200978292,13.738639023623193,1,193.76409458415583,1.2123143607750535,1,26,195.9987326450646,84,194.78480525081977,0.30952380952380953,4.279209431246045e-09,0.9999999957207906,19.26949755246061,1,213.49377147154883,2.014153447933495,1,53,216.5286367717199,55,214.51276204409078,0.9636363636363636,0.2634281274151242,0.7365718725848758,1.028226248272321,1,192.5460435450077,0.9454875364899635,1,14,194.51400174479932,57,193.566593027208,0.24561403508771928,1.2787493286481322e-09,0.9999999987212507,20.47738332239045
38,1,204.78775833034888,1.132026156410575,1,54,206.94025219092146,78,205.80543453525752,0.6923076923076923,9.314363169643514e-09,0.9999999906856368,18.491708192030057,0,198.50058113457635,1.3297852920368314,0,43,200.85224212845787,7,199.5207643955946,6.142857142857143,0.9501154658854065,0.049884534114593475,-2.9468725031125036,1,219.03079696418718,1.680417942814529,0,75,221.73359312536195,70,220.05037657218054,1.0714285714285714,0.708489191896816,0.29151080810318397,-0.8880577214610237,1,197.01558001246303,1.2796418061479926,1,75,199.317318753805,70,198.03585571749136,1.0714285714285714,0.0004147899462033644,0.9995852100537966,7.787323443604098
39,0,209.43996300641447,1.495727417524904,1,68,211.96039713080972,63,210.46173204109073,1.0793650793650793,0.0001516103583218964,0.9998483896416781,8.794045138576243,1,203.3540392597206,1.0789852943271399,1,24,205.45522143971175,69,204.37456503836438,0.34782608695652173,1.0231106206681773e-07,0.9999998976889379,16.0952479339283,0,224.23427421040833,1.4297538455575705,0,40,226.68719955626875,15,225.25453253276646,2.6666666666666665,0.8172316340949299,0.1827683659050701,-1.497702981531536,1,201.81903134239838,1.0957184890285134,1,15,203.93695817422122,42,202.83955198526382,0.35714285714285715,3.238451872222825e-07,0.9999996761548128,14.942999928715041
40,0,221.48545860219747,1.862775239162147,1,14,224.36894174246117,57,222.5029858695343,0.24561403508771928,5.85453463486374e-10,0.9999999994145465,21.258634417127055,1,214.98164942627773,0.9234976628795266,1,46,216.92972500622272,40,216.00457638455555,1.15,0.012861976202485637,0.9871380237975144,4.340534493904525,1,236.2129583102651,1.1950415130704641,0,94,238.4291873285547,46,237.23037970112637,2.0434782608695654,0.9989779271180711,0.001022072881928925,-6.884899881146691,0,213.46325500076637,1.3789253239519894,1,71,215.8610926750116,64,214.48097979836166,1.109375,0.0010935587427861604,0.9989064412572138,6.81722384220684
41,0,226.86910569295287,2.063063159584999,0,40,229.9557875613682,15,227.88985863141716,2.6666666666666665,0.9067925999200337,0.09320740007996631,-2.2750866394080966,0,219.43153556995094,2.280550841242075,1,28,222.73339598998427,41,220.45121196750551,0.6829268292682927,0.00020538388484625525,0.9997946161151537,8.490424315987182,0,240.92907829163596,3.330089094117284,0,14,245.2830788353458,7,241.94970639096573,2.0,0.1289949396085548,0.8710050603914452,1.9098746109479325,1,218.3632070403546,1.0120248603634536,1,14,220.39721505856141,8,219.38363760896027,1.75,0.03483366012066713,0.9651663398793329,3.321716295269121
42,0,232.45612217811868,1.0795253422111273,1,35,234.55922711873427,62,233.47645753715187,0.5645161290322581,2.6323228929925335e-08,0.9999999736767711,17.452814031982196,1,225.23512201057747,3.430374486371875,1,58,229.68819234427065,58,226.25617282511666,1.0,0.002318147949958105,0.9976818520500419,6.064665870530267,1,247.78322184737772,1.6125690168701112,0,55,250.41993539966643,95,248.8040668349713,0.5789473684210527,0.0045255122593189645,0.995474487740681,5.393488718368566,1,222.89983628690243,1.9968106742016971,1,32,225.91829945286736,16,223.92041579354554,2.0,0.26212226431807173,0.7378777356819283,1.034967088455211
43,1,237.05931442743167,1.0953202680684626,1,50,239.1779575040564,62,238.08001600764692,0.8064516129032258,1.609672535263229e-06,0.9999983903274647,13.339478184227929,0,232.1896224641241,1.6460397527553141,1,58,234.8581166821532,58,233.21046034106985,1.0,0.002318147949958105,0.9976818520500419,6.064665870530267,1,252.9202873990871,2.646662368439138,0,32,256.5908059081994,16,253.9408285850659,2.0,0.510626877462022,0.489373122537978,-0.042513912110585264,0,228.42012739926577,1.1290679411031306,1,58,230.57135548535734,58,229.44065436301753,1.0,0.000226857534059266,0.9997731424659407,8.390961457501263
44,0,241.6788700944744,2.3303391677327454,0,41,245.03254352789372,22,242.69913750328124,1.8636363636363635,0.45396058605169287,0.5460394139483071,0.1846807804494735,0,237.36004694923759,1.1298236921429634,1,7,239.51133350422606,54,238.37986635882407,0.12962962962962962,9.41137987542362e-08,0.9999999058862012,16.178761067733138,1,259.0908868960105,1.9794082464650273,0,87,262.0939916786738,89,260.1116599822417,0.9775280898876404,0.6597660636553564,0.34023393634464366,-0.6622518940954049,1,233.07307123439386,1.0126364142633975,1,42,235.1077081891708,67,234.09312254469842,0.6268656716417911,1.0551848173001588e-07,0.9999998944815183,16.064379611579394
45,0,247.53307488467544,2.7969387527555227,1,78,251.35368607519194,65,248.55356036685407,1.2,0.0010765021251245566,0.9989234978748754,6.832961185086607,1,242.0130464877002,1.3123326916247606,1,53,244.3479237188585,40,243.0339878704399,1.325,0.056239916920008515,0.9437600830799915,2.820245214303358,0,264.59956638142467,3.564372390974313,1,60,269.18236164189875,40,265.6148398267105,1.5,0.8704158999621752,0.1295841000378248,-1.9046410518561694,0,237.6096649253741,1.5126182418316603,1,41,240.1444709659554,22,238.63018122222275,1.8636363636363635,0.35621650130597116,0.6437834986940288,0.591823791690543
46,0,253.85395985236391,1.296074755024165,0,62,256.1735628475435,17,254.8742478042841,3.6470588235294117,0.9994618523345602,0.0005381476654397914,-7.5268392718662405,1,246.8498184303753,1.3640240258537233,1,69,249.23419638350606,61,247.8686466324143,1.1311475409836065,0.012160064985931363,0.9878399350140686,4.397363454766388,1,271.68266504863277,1.7902507688850164,0,82,274.5026054261252,40,272.7092293314636,2.05,0.9962539772024988,0.003746022797501252,-5.583307532441012,0,242.6462941719219,3.031084173358977,0,40,246.6991074788384,15,243.66609817417338,2.6666666666666665,0.8286851507742855,0.17131484922571447,-1.576337201925071
47,1,258.67376393359154,1.2297527394257486,1,43,260.9267110871151,93,259.69356675073504,0.46236559139784944,1.3025136524902337e-12,0.9999999999986975,27.366725139578456,1,251.73631627950817,1.0169409969821572,1,66,253.77039777906612,59,252.7523118960671,1.11864406779661,0.010274455203378441,0.9897255447966216,4.567766939808238,0,277.0028507588431,1.4634146052412689,0,71,279.4892207663506,69,278.0226654279977,1.0289855072463767,0.5833890408975895,0.4166109591024105,-0.3367014378356957,0,249.2004672777839,1.096263277810067,1,7,251.31868487410247,54,250.22051108209416,0.12962962962962962,5.054476837074162e-10,0.9999999994945523,21.405576576467986
48,1,263.42685923492536,1.563036295119673,0,41,266.0131906848401,7,264.4472388410941,5.857142857142857,0.9965772038670716,0.0034227961329283455,-5.673868811918091,1,256.2725350577384,0.8287111222743988,1,4,258.123509040568,22,257.2932050335221,0.18181818181818182,0.00010814509586964949,0.9998918549041304,9.131928601283688,1,281.98940842039883,2.6642567957751453,1,46,285.6767312353477,36,283.0093562249094,1.2777777777777777,0.5084092426975215,0.4915907573024785,-0.03364014286257922,1,253.8202220555395,1.596787128597498,1,10,256.43888923106715,44,254.84042625455186,0.22727272727272727,3.912617430046339e-08,0.9999999608738257,17.05647413534098
49,1,268.51372283138335,4.481265821959823,1,97,274.01854020310566,61,269.53429009160027,1.5901639344262295,0.4848906303178725,0.5151093696821275,0.06045588542329977,1,260.62539506098256,1.445719437673688,1,75,263.093719876837,70,261.64630562858656,1.0714285714285714,0.005171389057506248,0.9948286109424938,5.259429143079241,1,288.1770212100819,1.2631792281754315,0,58,290.4632360381074,6,289.19688802724704,9.666666666666666,0.9961848411344227,0.003815158865577309,-5.56495051761185,0,258.940360437613,1.3965023690834641,0,95,261.35876734694466,16,259.9604318961501,5.9375,0.9999999479933104,5.200668960484406e-08,-16.77189342838551
50,0,276.51896015228704,1.229239555541426,1,28,278.77193219494075,41,277.5396253876388,0.6829268292682927,1.4084785046941661e-05,0.9999859152149531,11.170401333001154,0,265.59550634166226,1.8122169389389455,1,55,268.4305664859712,60,266.61669779755175,0.9166666666666666,0.0007479938843240053,0.999252006115676,7.197367482289319,0,292.96353707415983,1.3960136785171926,1,7,295.38289963593706,54,293.9839178654365,0.12962962962962962,0.00018361398743271806,0.9998163860125673,8.60249126755915,0,263.8602824052796,1.1626500836573541,1,24,266.0449512018822,90,264.880462505389,0.26666666666666666,2.071676163950542e-13,0.9999999999997928,29.205248188269604
51,0,281.27272745221853,2.2638662387616932,0,62,284.5591500820592,16,282.29208345571533,3.875,0.999635787665319,0.0003642123346809574,-7.917409244690745,0,270.9325267774984,1.1134176077321172,1,7,273.0672326311469,54,271.952169990167,0.12962962962962962,9.41137987542362e-08,0.9999999058862012,16.178761067733138,1,297.8832824495621,1.5457926816307008,1,12,300.45291744498536,9,298.90422462206334,1.3333333333333333,0.07732332838439071,0.9226766716156093,2.4792831712358443,1,268.5463919886388,1.3473856458440423,0,41,270.91534005245194,7,269.56654601497576,5.857142857142857,0.9906214843891654,0.009378515610834541,-4.659911008126617
52,0,287.059453883674,3.2305084904655814,0,12,291.31347441719845,3,288.08002351410687,4.0,0.3282081346677629,0.6717918653322371,0.7163006042887736,0,275.5688428985886,1.9803204415366054,1,41,278.5706783509813,22,276.5886923330836,1.8636363636363635,0.25046875210541764,0.7495312478945824,1.0961138376776225,0,302.9534448510967,2.1303266044706106,0,62,306.10705554904416,17,303.9736526058987,3.6470588235294117,0.992905989341233,0.007094010658767006,-4.941385127336179,0,273.4167152591981,1.5288161290809512,0,78,275.96652965946123,34,274.43717506248504,2.2941176470588234,0.9965460808685122,0.003453919131487868,-5.664785814854248
53,1,293.8138888361864,1.513485795352608,1,3,296.35012460220605,18,294.83381412224844,0.16666666666666666,0.00011821921153265524,0.9998817807884673,9.042851705882322,0,281.07243834715337,0.9289834769442677,1,15,283.0237976722419,42,282.093126100488,0.35714285714285715,9.593710621036422e-06,0.999990406289379,11.554393224076255,0,308.6071851286106,1.745674084406346,1,38,311.3768204404041,43,309.6282912516035,0.8837209302325582,0.10654753288585628,0.8934524671141437,2.1265019308989705,0,278.4696032325737,1.1956341043114662,0,43,280.68808567756787,7,279.4907895526849,6.142857142857143,0.9946495413405849,0.005350458659415086,-5.225208167391401
54,1,298.85066702077165,0.9962066262960434,1,15,300.86996297491714,56,299.87071240507066,0.26785714285714285,1.138172445180885e-09,0.9999999988618276,20.593841978033282,1,285.5254600881599,1.3630419047549367,0,58,287.9102433733642,6,286.5455671022646,9.666666666666666,0.9984144067135361,0.001585593286463853,-6.445209776794342,1,313.87742409296334,1.3292507752776146,1,19,316.22997318347916,37,314.89810987142846,0.5135135135135135,0.009965811718221307,0.9900341882817787,4.5985790688816435,1,283.1898725377396,1.4295736979693174,1,87,285.6415242077783,89,284.21018695877865,0.9775280898876404,1.592287467000464e-05,0.99998407712533,11.047737901123437
55,1,303.37031615898013,1.246166329830885,1,42,305.6396101382561,67,304.3903030748479,0.6268656716417911,2.546127420011146e-08,0.9999999745387258,17.48610717247106,1,290.4120385297574,2.229833331424743,1,88,293.66425166046247,96,291.43268598709255,0.9166666666666666,0.0001680682060312133,0.9998319317939688,8.690972590339852,0,318.73053772514686,3.6809327071532607,1,60,323.4350006482564,61,319.7510441457853,0.9836065573770492,0.36292424240728727,0.6370757575927127,0.5626944633359261,1,288.14316647546366,1.3954297783784568,1,66,290.5611522500403,59,289.16415091976523,1.11864406779661,0.0015316322530746218,0.9984683677469254,6.479888473762991
56,1,308.1401719143614,1.6983051099814475,1,45,310.8600560352206,40,309.1585904387757,1.125,0.002197904099681791,0.9978020959003182,6.118050731634635,1,296.1658449405804,1.2790405238047242,1,74,298.4674070896581,60,297.18667689105496,1.2333333333333334,0.044325043887278315,0.9556749561127217,3.0708680090862193,1,325.93553556036204,1.3456457979045808,1,42,328.30468273488805,67,326.9562687459402,0.6268656716417911,0.013687833953042627,0.9863121660469574,4.277465497245943,1,293.06317259091884,1.1621037148870528,1,12,295.24821985606104,9,294.08408750453964,1.3333333333333333,0.014243213525623077,0.9857567864743769,4.2371291078550435
57,0,313.36029188660905,2.2970505552366376,1,87,316.6803922634572,85,314.3803258142434,1.0235294117647058,5.1507702925057686e-06,0.9999948492297075,12.17635913232941,0,300.9693563198671,1.3959492836147547,0,12,303.3873120700009,3,301.9896742962301,4.0,0.05606534605368818,0.9439346539463118,2.823539036975424,0,330.8053029803559,1.246301440987736,0,62,333.0751587357372,16,331.8254257966764,3.875,0.9936874141796181,0.006312585820381869,-5.058877294726278,1,297.7486259783618,1.2473116116598248,1,88,300.0169508731924,96,298.76826049992815,0.9166666666666666,1.8214080244050024e-06,0.9999981785919756,13.21589889478792
58,1,319.1808295957744,1.862839238718152,1,75,322.0674629509449,70,320.20157937379554,1.0714285714285714,6.715243499400003e-05,0.999932847565006,9.608478218952234,1,305.8890380905941,2.2083519008010626,1,62,309.12431338476017,43,306.9142990675755,1.441860465116279,0.169762533666739,0.830237466333261,1.5873111641398032,0,335.57719171838835,1.2742709550075233,0,50,337.87818774580956,7,336.6007890943438,7.142857142857143,0.9838533054336897,0.016146694566310352,-4.109761448190898,0,302.5193686452694,1.4632237912155688,0,51,305.0044602365233,7,303.539540449623,7.285714285714286,0.9994396546718228,0.000560345328177224,-7.486396804450541
59,0,324.56769959256053,3.2463022312149405,1,60,328.8366937204264,40,325.5889333197847,1.5,0.1187087776679554,0.8812912223320446,2.0047148829252834,0,311.62627762695774,1.02959123859182,1,71,313.67756560398266,64,312.6463210359216,1.109375,0.009150821415174426,0.9908491785848256,4.684718684203987,1,340.37690221797675,3.480562613811344,1,88,344.86591004626825,96,341.38247494539246,0.9166666666666666,0.5017547015760044,0.4982452984239955,-0.007018835118560874,0,307.5062976642512,1.1460729376412928,0,62,309.6743103028275,16,308.5264825052582,3.875,0.9994156875982712,0.0005843124017288295,-7.444490300516563
60,0,338.3435586919077,2.9301441656425595,1,7,342.29736976418644,54,339.36440130881965,0.12962962962962962,2.771447515925729e-10,0.9999999997228552,22.0064811770294,1,323.20456129312515,1.1622893931344151,1,32,325.38529607467353,16,324.22135453717783,2.0,0.16696043180862707,0.8330395681913729,1.607324292803218,1,354.39151828177273,1.378571744542569,1,43,356.7907916069962,93,355.40917591936886,0.46236559139784944,0.000772543238617196,0.9992274567613828,7.165049736634846,0,319.2002081181854,1.2786474381573498,1,78,321.49876978062093,65,320.21844688942656,1.2,0.005547751129924117,0.9944522488700759,5.188799438101231
61,1,344.79788215784356,1.9628883842378855,1,62,347.78472821367905,43,345.8187006767839,1.441860465116279,0.06735923876912964,0.9326407612308704,2.6279800215708717,0,327.88710387283936,1.3631853121332824,0,95,330.27205979963765,16,328.9070971091278,5.9375,0.9999943013709082,5.698629091850294e-06,-12.07527922360736,0,359.2910397052765,1.3132583191618323,1,45,361.6272162911482,60,360.3109717075713,0.75,0.049576818351000806,0.9504231816489992,2.953383987253673,1,324.0054032462649,1.8629293129779398,0,82,326.88564530806616,40,325.02107333252206,2.05,0.9909391142490084,0.00906088575099163,-4.694686213456954
62,0,350.2850075219758,1.3623817581683397,1,87,352.6710008783266,76,351.3057075222023,1.144736842105263,0.00017314130010537276,0.9998268586998946,8.661229376930724,0,332.77393159782514,1.0789912203326821,1,6,334.8750553089194,26,333.794379549101,0.23076923076923078,6.378948749963254e-05,0.9999362105125004,9.659858362400945,1,364.1276433519088,1.0962794753722847,1,24,366.2469118097797,69,365.1476922919974,0.34782608695652173,0.0005406120578311802,0.9994593879421688,7.522267861595267,0,329.39193744119257,2.5805868706665933,1,60,332.9897473822348,40,330.4075020463206,1.5,0.17893457808376556,0.8210654219162344,1.5235825384556816
63,1,355.16998280677944,1.1961946953088045,1,40,357.37432128563523,93,356.1750261527486,0.43010752688172044,5.722089468918057e-13,0.9999999999994278,28.18927217846422,1,337.3767165392637,1.0077392407692969,1,17,339.4114297409542,82,338.4020237387158,0.2073170731707317,9.804532741242156e-10,0.9999999990195467,20.74300612559847,0,368.7473056856543,1.4629907049238682,0,51,371.2326817200519,7,369.7676781802438,7.285714285714286,0.9863055230830687,0.013694476916931292,-4.2769735609447554,1,335.49129404546693,1.2299218252301216,1,46,337.742402585689,36,336.51133192377165,1.2777777777777777,0.016623085785636205,0.9833769142143638,4.0802000400246
64,1,359.8746053343639,1.012737549841404,1,69,361.91091497661546,61,360.89494108827785,1.1311475409836065,0.00043545532369160256,0.9995645446763084,7.738682803014166,1,341.9131636628881,1.0328121692873538,1,42,343.96438131900504,67,342.92986525269225,0.6268656716417911,8.254171618871098e-06,0.9999917458283811,11.704783580438018,1,373.73288912698627,1.24978350661695,1,3,376.00360927544534,18,374.75075614638627,0.16666666666666666,0.006421752948336912,0.9935782470516631,5.041621692531428,1,340.2447966542095,1.7005237718112767,1,33,342.9622855214402,25,341.2604943946935,1.32,0.019775082086973428,0.9802249179130266,3.9033593887131226
65,0,364.41113660577685,3.5468502594158053,1,14,368.9823510539718,7,365.43222613586113,2.0,0.15057022103595252,0.8494297789640475,1.7301357157588673,1,346.46608798159286,0.9788836059160531,1,12,348.46789578022435,9,347.48689188295975,1.3333333333333333,0.013830032471212839,0.9861699675287872,4.266986227051345,0,378.5039269044064,2.380591295193881,1,56,381.90757868858054,59,379.523827301804,0.9491525423728814,0.26961858348408807,0.7303814165159119,0.9965585795711508,1,345.4648056142032,1.2296701716259122,1,46,347.7163838823326,40,346.484801616054,1.15,0.004149279538487427,0.9958507204615126,5.480662653309174
66,1,371.4824533746578,1.046292433515191,1,55,373.55185014847666,95,372.50254103075713,0.5789473684210527,1.602007415613116e-11,0.9999999999839799,24.857178545311047,0,350.96923701139167,1.1298031490296125,1,78,353.12054529460147,65,351.9890323225409,1.2,0.032139444810462825,0.9678605551895372,3.4050039362821463,1,384.4079196257517,1.6463605421595275,1,4,387.07627043686807,22,385.42820007167757,0.18181818181818182,0.004752227589462588,0.9952477724105374,5.344378249337991,0,350.2172846207395,1.1797048579901457,1,60,352.41968888184056,61,351.23809247277677,0.9836065573770492,0.00013968077063708506,0.9998603192293629,8.876011258200036
67,0,376.05209153098986,1.4965582303702831,1,9,378.57200575526804,7,377.0721859028563,1.2857142857142858,0.043055819297120324,0.9569441807028797,3.1012476653286782,0,355.62236612988636,1.062412494327873,1,71,357.7069897316396,69,356.6428369949572,1.0289855072463767,0.0027659775766208927,0.9972340224233791,5.887591342600607,1,389.5780766545795,1.2076621246524155,1,10,391.81421357626095,44,390.6035094833933,0.22727272727272727,0.0009810228954225675,0.9990189771045774,6.925933255397004,0,354.9211557423696,1.1458840989507735,1,56,357.0893307509832,59,355.9416894223541,0.9491525423728814,9.083507037799254e-05,0.999909164929622,9.306374270088362
68,1,381.07224160665646,1.5455714473500848,1,52,383.64198129298165,68,382.09315612493083,0.7647058823529411,2.674178263273319e-07,0.9999997325821737,15.134453241685094,0,360.2085553575307,1.7459786757826805,0,62,362.9771022768691,16,361.2294793576002,3.875,0.9926683875811046,0.007331612418895395,-4.90820119120182,0,394.3145493781194,1.1629894408397377,1,24,396.5005787643604,90,395.33448375063017,0.26666666666666666,4.5872293521709295e-05,0.9999541277064783,9.98960337678621,0,359.58900285093114,3.2136152959428728,1,12,363.81042336300015,3,360.5950686139986,4.0,0.10560562390637651,0.8943943760936235,2.1364351879281864
69,0,386.1424668226391,1.5468040369451046,1,12,388.71200226293877,23,387.1622060351074,0.5217391304347826,0.00019787046652575135,0.9998021295334742,8.527700060778562,0,365.47889743279666,1.5292499060742557,0,78,368.0305816559121,34,366.49951328523457,2.2941176470588234,0.9829231391374641,0.017076860862535855,-4.052806545776757,1,399.00098607176915,3.881212330888957,1,56,403.9054556316696,46,400.02127402368933,1.2173913043478262,0.6296789132236257,0.3703210867763743,-0.5308395965001462,0,366.3121869144961,1.2628896487876773,1,6,368.59687246149406,26,367.33208810165524,0.23076923076923078,6.893072851510418e-06,0.9999931069271485,11.884986692108
70,0,391.21234636055306,1.3959635058417916,1,45,393.6319941561669,60,392.2330376696773,0.75,8.923110266234602e-07,0.9999991076889734,13.92945018827586,1,370.5322792325169,1.6134531628340483,1,50,373.16734933201224,62,371.5522562712431,0.8064516129032258,0.00015616559029474342,0.9998438344097053,8.764437459648535,0,406.406012667343,1.196673904079944,1,59,408.62564868992195,65,407.42596797831357,0.9076923076923077,0.23149741034971882,0.7685025896502812,1.1998752456501802,0,371.0986474696547,0.9296815493144095,1,15,373.0498942025006,42,372.11857789196074,0.35714285714285715,3.238451872222825e-07,0.9999996761548128,14.942999928715041
71,1,396.13231218000874,1.0626854812726378,1,15,398.21798269310966,42,397.1522429971956,0.35714285714285715,2.697250730543388e-07,0.999999730274927,15.125862374936446,0,375.6691203895025,1.0162966530770063,1,60,377.7037229742855,70,376.6857449426316,0.8571428571428571,0.0001999602691609148,0.9998000397308391,8.517191885082141,0,411.1257620723918,1.3965576775372028,1,53,413.5452964855358,57,412.1456158524379,0.9298245614035088,0.2204217033721082,0.7795782966278918,1.2632105830525213,0,375.5515182977542,0.9962836634367704,0,53,377.5696693658829,15,376.57152694137767,3.533333333333333,0.9947838647451214,0.005216135254878581,-5.250768737146174
72,0,400.71859266702086,1.2462528487667441,1,45,402.98810116387904,92,401.7388403224759,0.4891304347826087,3.3311131630853197e-12,0.9999999999966689,26.427714584584244,0,380.2053616861813,1.5129579943604767,0,62,382.7403988377191,17,381.2256820332259,3.6470588235294117,0.9906928964221379,0.009307103577862089,-4.667626659522502,0,416.0456848302856,1.1294610262848437,1,14,418.1980333086103,57,417.06580606661737,0.24561403508771928,0.0004159693258670716,0.9995840306741329,7.784482980452992,1,380.07157237362117,1.1627745279110968,1,15,382.2558871959336,56,381.0914759314619,0.26785714285714285,2.407639421164731e-09,0.9999999975923606,19.84461906034588
73,0,405.4886175082065,1.4299466349184513,1,59,407.9415736692026,65,406.5085285725072,0.9076923076923077,5.884478255002712e-06,0.999994115521745,12.043186593440707,0,385.24212367320433,1.3792156935669482,1,9,387.643279068172,7,386.262606785167,1.2857142857142858,0.011688531963077398,0.9883114680369226,4.43738971209321,0,420.6989206150174,1.3132239487022161,0,62,423.0349624850787,17,421.7188593330793,3.6470588235294117,0.992905989341233,0.007094010658767006,-4.941385127336179,0,384.7578775123693,0.9795374311506748,1,45,386.7589856577106,92,385.7778174155392,0.4891304347826087,3.8927305823222014e-11,0.9999999999610727,23.96932516233323
74,0,410.4421429517679,2.963608975056559,0,78,414.42908303206787,34,411.4622499658726,2.2941176470588234,0.9949066237818107,0.005093376218189236,-5.274707972473047,0,390.14514296501875,1.3797430996783078,1,45,392.5470620119013,60,391.16557037318125,0.75,8.530353882907349e-05,0.9999146964611709,9.369209310290804,1,425.5347554734908,1.1627512192353606,1,37,427.72145922807977,54,426.5556134977378,0.6851851851851852,0.026958505283373846,0.9730414947166262,3.586127884943926,1,389.2607452585362,2.447256618645042,1,54,392.72961051762104,31,390.28072229772806,1.7419354838709677,0.48289838942690977,0.5171016105730902,0.06843313635973855
75,0,416.92967996886,1.329018084332347,0,50,419.28241157718,7,417.95028594508767,7.142857142857143,0.9997089924572534,0.00029100754274656826,-8.141870321143744,0,395.04858023067936,1.21285954490304,1,77,397.28351458720863,72,396.06871213344857,1.0694444444444444,0.004936205945521244,0.9950637940544788,5.306209840837549,1,430.221778832376,4.430328263901174,0,74,435.67353282356635,60,431.24254559818655,1.2333333333333334,0.8694117150879566,0.13058828491204338,-1.8957672826081633,1,395.231406068895,1.262886883225292,1,55,397.51616786280647,95,396.25164503324777,0.5789473684210527,2.299438417452393e-10,0.9999999997700562,22.193186002913905
76,1,421.78268930502236,1.346290537621826,1,26,424.15242393501103,84,422.80296975094825,0.30952380952380953,4.1389114358025836e-13,0.9999999999995861,28.513173393871206,0,399.7852042624727,0.9453121293336153,1,14,401.75268088281155,57,400.8057612506673,0.24561403508771928,2.0915387932696206e-07,0.9999997908461207,15.380195382015296,1,438.1771760741249,1.6578785395249724,1,25,440.8635993357748,37,439.2025366066955,0.6756756756756757,0.02671877955175439,0.9732812204482456,3.595306392358507,0,400.01795669831336,1.2130353469401598,1,87,402.2528163883835,85,401.03799655195326,1.0235294117647058,6.459717446305469e-05,0.999935402825537,9.647275287833345
77,0,426.6526696626097,1.130042556207627,1,6,428.8052650541067,26,427.67238240595907,0.23076923076923078,1.183136916282912e-05,0.9999881686308372,11.344744318728893,0,404.25486201327294,2.680402140133083,1,40,407.9568949174136,15,405.27505633607507,2.6666666666666665,0.5916338385942427,0.4083661614057573,-0.370723701277444,0,443.3639311869629,1.3132863687351346,1,12,445.7000824888237,23,444.3838592385873,0.5217391304347826,0.015919334176507816,0.9840806658234922,4.124173514697236,0,404.7545297672041,1.6298647783696651,0,50,407.4057483715005,7,405.77440409036353,7.142857142857143,0.9992567601415252,0.0007432398584747944,-7.203748224818149
78,1,431.3057565097697,1.3631770159117877,1,88,433.6918948534876,96,432.3257236722857,0.9166666666666666,9.228294073349019e-08,0.9999999077170593,16.198406444359275,1,410.4592664670199,0.863019781652838,1,28,412.3434599270113,82,411.4788022232242,0.34146341463414637,1.0689754081916192e-08,0.9999999893102459,18.353980105982327,1,448.20062609249726,2.063292294740677,0,54,451.28725265245885,31,449.2208686126396,1.7419354838709677,0.8764027967812275,0.12359720321877259,-1.9587978818439304,1,409.9077999223955,1.7136615179479122,1,56,412.6429843525402,46,410.92767424555495,1.2173913043478262,0.00853616374434396,0.991463836255656,4.754870776912116
79,1,436.19063144922256,1.7126359404064715,1,53,438.9121116157621,40,437.1963807689026,1.325,0.01937376384664491,0.9806262361533551,3.9242716123230155,0,414.84522031759843,1.8794819647446275,1,24,417.74702163692564,90,415.865878441371,0.26666666666666666,6.54392984245078e-10,0.999999999345607,21.147313050939974,0,453.7875493434258,1.3294700342230499,0,80,456.14038722310215,60,454.80791117157787,1.3333333333333333,0.9477989582652739,0.052201041734726006,-2.899039959131302,0,415.144725385122,1.7798788426443934,1,96,417.94649415137246,89,416.1648908685893,1.0786516853932584,0.00020263517968377442,0.9997973648203162,8.503900684425824
80,1,448.437231161166,1.277639243286103,1,43,450.73414028435946,97,449.45521630346775,0.44329896907216493,2.731148640577885e-13,0.9999999999997269,28.92888394075042,1,427.2741145109758,3.1965008676052094,0,98,431.48973000003025,73,428.2914450378157,1.3424657534246576,0.27171939280001034,0.7282806071999897,0.9859165337133423,0,465.6655652374029,1.7778829955495894,0,86,468.46406566537917,59,466.6844380814582,1.4576271186440677,0.9823602774960563,0.017639722503943717,-4.019804803044542,0,427.4726854967885,1.0787549740634859,1,45,429.5707727703266,60,428.4903391832486,0.75,2.857317939031212e-06,0.999997142682061,12.76562429936011
81,1,453.23719845013693,3.113905902951956,1,32,457.3746100747958,16,454.2576416609809,2.0,0.4232947759918624,0.5767052240081376,0.30926245272810027,0,433.99149434128776,1.078990035224706,1,53,436.0925919781439,57,435.0119644161314,0.9298245614035088,0.0009967510672178603,0.9990032489327821,6.910012252851851,1,470.9658434391022,1.3966232570819557,1,43,473.38514950685203,97,471.98564902180806,0.44329896907216493,0.0004829963220241984,0.9995170036779758,7.6350184061951065,0,432.07273780275136,0.8956099264323711,1,28,433.9907137011178,41,433.09341686498374,0.6829268292682927,1.8120423954104403e-05,0.9999818795760459,10.918452740009387
82,0,459.8749498273246,1.3291630716994405,1,22,462.2277794107795,31,460.8956881482154,0.7096774193548387,0.0001350087506358788,0.9998649912493641,8.910035944236373,1,438.5943334060721,0.9456234374083579,1,6,440.562284889631,8,439.6148935551755,0.75,0.004823036850256313,0.9951769631497437,5.329516792173005,1,475.88572629587725,1.3960480489768088,0,41,478.3052528076805,7,476.90621849382296,5.857142857142857,0.9311732218472624,0.0688267781527376,-2.6048524334061915,1,436.49745027767494,1.713389321230352,0,58,439.2275704233907,6,437.51273438939825,9.666666666666666,0.999945379819478,5.4620180522021474e-05,-9.815052515198431
83,1,464.7280954592861,1.4794355053454638,1,33,467.23130809376016,25,465.74863822525367,1.32,0.027917964793591432,0.9720820352064086,3.550169818234682,1,443.0640334286727,0.862274696584791,1,33,444.9487120229751,25,444.0845406395383,1.32,0.027778781516873297,0.9722212184831267,3.555310895116926,1,480.80569646088406,1.5123420939780772,1,40,483.34236876899377,93,481.8266212507151,0.43010752688172044,0.00046794764775937026,0.9995320523522406,7.666686074896446,1,441.72930316021666,2.429448858369142,1,98,445.1813415950164,73,442.75026390049607,1.3424657534246576,0.0881244845886473,0.9118755154113527,2.336753072022521
84,0,469.73147520422935,1.2124478914774954,0,95,471.96770378015935,16,470.7520981677808,5.9375,0.999999957200874,4.2799126020428316e-08,-16.966748111851476,0,447.45022194553167,1.5618791617453098,1,12,450.03405779600143,23,448.4704447123222,0.5217391304347826,0.0004829908840349173,0.9995170091159651,7.63502967056182,0,485.8422581516206,2.013661597389728,0,87,488.8792168791406,76,486.86243272107095,1.144736842105263,0.8993162259232717,0.10068377407672835,-2.1896500701667025,0,447.68319245474413,1.5795984286814928,1,55,450.2850059415214,60,448.70378262829036,0.9166666666666666,4.824652513368832e-05,0.9999517534748663,9.939138503038308
85,0,474.4679969153367,1.1456573335453868,1,55,476.63810732681304,60,475.4886890142225,0.9166666666666666,1.3849794833875606e-05,0.9999861502051661,11.187226288988487,1,452.5370997642167,0.8955372353084385,1,37,454.4548966996372,54,453.55765793751925,0.6851851851851852,6.35744333957744e-05,0.9999364255666042,9.663235582616235,0,491.3793263109401,3.114280025474727,1,71,495.5168793676421,64,492.3994297692552,1.109375,0.7158894382378673,0.28411056176213273,-0.9241622747861952,0,452.78651665430516,1.1291208793409169,1,7,454.9378039990552,54,453.8070511240512,0.12962962962962962,5.054476837074162e-10,0.9999999994945523,21.405576576467986
86,0,479.1361636277288,2.6473556999117136,1,28,482.7919499250129,18,480.1411631219089,1.5555555555555556,0.10089749414570859,0.8991025058542914,2.1872919580329553,0,456.95693007763475,2.297282060608268,0,62,460.2754683843814,17,457.9765353645198,3.6470588235294117,0.9906928964221379,0.009307103577862089,-4.667626659522502,0,498.017125885468,1.029120720922947,1,28,500.06962314387783,41,499.0376816885546,0.6829268292682927,0.027554753148991584,0.9724452468510084,3.5636387236573324,1,457.4396682912484,2.364014939405024,1,69,460.82534836465493,61,458.4597425153479,1.1311475409836065,0.001775007507992865,0.9982249924920071,6.33217404150812
87,1,485.29173501208425,2.3963526408188045,0,82,488.7119362875819,40,486.3124855803326,2.05,0.9825047832156122,0.017495216784387826,-4.028177695181869,1,462.7771679358557,1.6803152272477746,0,94,465.47908706218004,46,463.79705490078777,2.0434782608695654,0.9904428167706738,0.009557183229326206,-4.64085909042761,0,502.56999055016786,1.1295297667384148,0,95,504.7227364596911,16,503.5900955889374,5.9375,0.9999745017953493,2.5498204650703294e-05,-10.57687701560354,0,463.32689305208623,1.0623725927434862,1,68,465.4116256907582,63,464.347637694329,1.0793650793650793,0.000665002903003975,0.999334997096996,7.315053927782926
88,0,491.2122254720889,1.346042439341545,1,60,493.5821615830064,61,492.2330558425747,0.9836065573770492,3.6921325971661645e-05,0.9999630786740283,10.206684312241563,0,467.9806554536335,2.5467072473838925,1,87,471.5497808204964,76,469.00143644120544,1.144736842105263,0.01635604988912842,0.9836439501108716,4.096666139553149,0,507.2232934953645,1.380001864861697,0,12,509.6263301698491,3,508.2431081645191,4.0,0.14500465651609395,0.854995343483906,1.7743301668952456,1,467.91309887263924,1.1789870327338576,1,15,470.1146466420032,19,468.9339821813628,0.7894736842105263,0.0010165335167828804,0.9989834664832171,6.890339902169285
89,0,496.082313681487,1.0964244627393782,1,24,498.201492855791,90,497.10227294266224,0.26666666666666666,2.2870594307278225e-14,0.9999999999999771,31.408924400887496,1,474.05142229795456,1.145832740701735,1,43,476.21956056635827,93,475.0721207181923,0.46236559139784944,1.9702166453861025e-08,0.9999999802978335,17.7425372152696,0,512.1268006870523,3.114141359459609,0,78,516.2640325594693,65,513.1467528375797,1.2,0.878377545542923,0.12162245445707702,-1.9771548966730914,0,472.6164295510389,1.0286656110547483,1,45,474.667226862628,42,473.6369960210286,1.0714285714285714,0.0015568346534597932,0.9984431653465402,6.463542539583868
90,1,500.70225848350674,1.2457064795307815,1,37,502.9714454007335,54,501.72278149658814,0.6851851851851852,1.0363449494121824e-06,0.9999989636550506,13.779809470448221,0,478.7212289078161,1.2291356544010341,1,56,480.97281784238294,59,479.74195300694555,0.9491525423728814,0.0011817118417516426,0.9988182881582484,6.739608767809979,1,518.7642972501926,1.4128756634891033,1,52,521.2009200179018,68,519.7846760661341,0.7647058823529411,0.0616391973599526,0.9383608026400474,2.722836537097475,0,477.16969559760764,1.7459822320379317,1,80,479.9378838017583,60,478.19022769713774,1.3333333333333333,0.053508371266641985,0.946491628733358,2.8729240122307136
91,0,505.4716859930195,1.513253499288112,0,62,508.00804699305445,17,506.4918633280322,3.6470588235294117,0.9994618523345602,0.0005381476654397914,-7.5268392718662405,0,483.4743261844851,1.1958241281099617,1,22,485.6926126796752,31,484.49503922183067,0.7096774193548387,0.000618382926516059,0.9993816170734839,7.387784095994787,1,523.7009642645717,2.3802942098118365,0,66,527.104650023859,59,524.7209863406606,1.11864406779661,0.6627475855889571,0.337252414411043,-0.6755625479674127,1,482.43957110634074,2.163084650412202,1,72,485.62508967891335,51,483.460389229469,1.411764705882353,0.12099176621379981,0.8790082337862002,1.9830717693995534
92,1,510.50859217718244,1.563635207246989,1,16,513.0953518725,10,511.52856091968715,1.6,0.08679583376996847,0.9132041662300315,2.353400854404457,1,488.1940309475176,2.39673703443259,0,97,491.6131047196686,61,489.2147554419935,1.5901639344262295,0.8434062214766315,0.15659377852336853,-1.6837936636383217,1,529.6050107143819,1.6635456862859428,1,15,532.2899382757023,19,530.6246385197155,0.7894736842105263,0.040990191084133376,0.9590098089158666,3.152568506875272,1,488.12686310661957,1.146348690148443,1,62,490.2949136714451,43,489.14690651604906,1.441860465116279,0.11829955690784588,0.8817004430921541,2.0086323391543264
93,0,515.5954095516354,1.4800363928079605,0,43,518.0985167045146,7,516.6153360228054,6.142857142857143,0.9980192827911447,0.001980717208855335,-6.222313591746014,1,494.1153632821515,0.9627738166600466,1,56,496.09961181366816,46,495.13485321123153,1.2173913043478262,0.0262844974075086,0.9737155025924914,3.6121398559787665,0,534.7916516545229,1.1295412238687277,0,53,536.9446962298825,15,535.8118566437624,3.533333333333333,0.9751918126144058,0.024808187385594233,-3.6714604473316697,1,492.79676690138876,1.2130740629509091,1,26,495.03171627037227,84,493.81696912506595,0.30952380952380953,2.9811708657234703e-12,0.9999999999970188,26.538704984615478
94,0,520.5987517656758,2.7135121850296855,1,80,524.3351470571943,60,521.6192593714222,1.3333333333333333,0.012975056326393175,0.9870249436736068,4.331666541136146,1,498.60226543666795,1.5502260536886752,1,16,501.1694850306958,10,499.6175353266299,1.6,0.025610117445262315,0.9743898825547377,3.638824027529989,1,539.4447598350234,1.0128051056526601,1,14,541.4807064160705,57,540.4649071451277,0.24561403508771928,0.0004159693258670716,0.9995840306741329,7.784482980452992,0,497.53316693380475,2.0635435529984534,1,28,500.6182977934368,18,498.55307444231585,1.5555555555555556,0.053870689602015576,0.9461293103979844,2.8657927136270698
95,1,526.8363219681196,2.18014969676733,1,72,530.039994769264,51,527.8566502160393,1.411764705882353,0.046962004827580395,0.9530379951724196,3.010315905027294,0,503.67117075482383,0.9618114484474063,1,80,505.6556472363882,60,504.692088434007,1.3333333333333333,0.14582075328826904,0.854179246711731,1.767762912285213,0,543.9812298719771,1.5631121466867626,1,9,546.5674111982808,7,545.0013100216165,1.2857142857142858,0.06031662716262187,0.9396833728373781,2.7459351747172134,1,503.1205022330396,1.2294011353515089,1,19,505.37167872395366,37,504.1404733462259,0.5135135135135135,5.775803833762971e-06,0.9999942241961662,12.061827343428622
96,1,532.5400646952912,1.779716867953539,0,58,535.3431881247088,6,533.5603163014166,9.666666666666666,0.9999780389773697,2.1961022630281935e-05,-10.72621941327994,0,508.1574988863431,0.9621033985167742,1,35,510.1421160087921,62,509.1782573554665,0.5645161290322581,6.009276430352095e-06,0.9999939907235696,12.022200201654822,0,549.0678540617228,1.112647633999586,0,78,551.2037514182739,34,550.0879914951511,2.2941176470588234,0.9963863332344164,0.003613666765583661,-5.619412085766186,0,507.8733905223198,1.0958915259689093,1,22,509.9913718723692,31,508.89367175800726,0.7096774193548387,0.0001101907193311602,0.9998898092806688,9.113187684596745
97,0,537.8436570619233,1.546102804131806,1,58,540.4132782300003,58,538.8641346427612,1.0,6.885635518061317e-05,0.9999311436448194,9.583419173594228,0,512.6439558072016,4.01481873029843,1,86,517.6806083624251,59,513.6640683519654,1.4576271186440677,0.4442124238609545,0.5557875761390455,0.22408328380488482,0,553.7041587261483,3.246976994909346,0,68,557.9728336445987,63,554.7242570486851,1.0793650793650793,0.6318166291580232,0.3681833708419768,-0.540018103914727,0,512.4931520163082,1.0121149341575801,1,53,514.5277198357508,57,513.5138958683237,0.9298245614035088,7.836234277425191e-05,0.9999216376572257,9.454088702343087
98,1,542.9134168964811,1.0956868841312826,1,24,545.0329472799785,69,543.9343345751986,0.34782608695652173,8.374456683668541e-11,0.9999999999162554,23.203249820835826,0,520.182189790532,1.2792929676361382,0,53,522.4838771740906,15,521.2026215447113,3.533333333333333,0.9606123290907116,0.03938767090928839,-3.1941180776796267,0,560.4754647496156,1.1455238033086061,1,7,562.6447917558253,54,561.4963180334307,0.12962962962962962,0.00018361398743271806,0.9998163860125673,8.60249126755915,0,517.0271003800444,1.2799246697686613,1,12,519.3148247352801,23,518.0334158218466,0.5217391304347826,0.00010741017186288726,0.9998925898281371,9.138748254350729
99,1,547.5334569080733,2.4808988105505705,0,94,551.0371139859781,46,548.5531747876666,2.0434782608695654,0.9931417870614422,0.006858212938557842,-4.975426537202379,1,524.9855052195489,1.4960576882585883,1,72,527.5037131765857,51,526.0059223566204,1.411764705882353,0.20749927258532896,0.792500727414671,1.3400655895726805,0,565.145251606591,1.2463018358685076,0,43,567.4146664738655,7,566.1654870151542,6.142857142857143,0.9497542193745978,0.05024578062540222,-2.939276658913904,1,521.8157586590387,1.8641824452206492,1,37,524.701453349553,54,522.8358506606892,0.6851851851851852,2.4336425039628296e-06,0.999997566357496,12.926119016480476
