,self_acceptUp,self_cue_times,self_decision_times,self_decisions,self_punishment_values,self_response_times,self_reward_values,self_trial_times,self_punishment_reward_ratio,self_prob_reject,self_prob_accept,self_SV,harm_other_acceptUp,harm_other_cue_times,harm_other_decision_times,harm_other_decisions,harm_other_punishment_values,harm_other_response_times,harm_other_reward_values,harm_other_trial_times,harm_other_punishment_reward_ratio,harm_other_prob_reject,harm_other_prob_accept,harm_other_SV,harm_self_acceptUp,harm_self_cue_times,harm_self_decision_times,harm_self_decisions,harm_self_punishment_values,harm_self_response_times,harm_self_reward_values,harm_self_trial_times,harm_self_punishment_reward_ratio,harm_self_prob_reject,harm_self_prob_accept,harm_self_SV,other_acceptUp,other_cue_times,other_decision_times,other_decisions,other_punishment_values,other_response_times,other_reward_values,other_trial_times,other_punishment_reward_ratio,other_prob_reject,other_prob_accept,other_SV
0,1,0.003589917439967394,1.3406557850539684,0,97,2.369544605608098,61,1.0269972693640739,1.5901639344262295,0.9992621203633218,0.0007378796366781817,-7.210991688593218,1,0.0044835449662059546,2.72667245042976,0,82,3.754543199087493,40,1.026804479653947,2.05,0.9983285579396145,0.0016714420603855277,-6.392395675472044,1,0.0041362864430993795,4.959880786365829,0,40,5.988602101104334,93,1.0269549977965653,0.43010752688172044,0.9634835363112861,0.036516463688713856,-3.272792181474176,1,0.002815598272718489,1.4939962611533701,0,58,2.519209040910937,6,1.023769622668624,9.666666666666666,0.9999999999983391,1.6609301137291752e-12,-27.12364336099777
1,0,4.870428751688451,1.5661861147964373,0,59,7.456900842953473,65,5.8885703382547945,0.9076923076923077,0.8904548769404488,0.10954512305955119,-2.095395882736736,1,6.254295100923628,0.9986417810432613,0,45,8.256495194509625,40,7.256164133548737,1.125,0.8829977488042557,0.11700225119574424,-2.0211294755132383,0,8.490495232399553,3.0998492448125035,1,12,12.609031642787158,23,9.507365118246526,0.5217391304347826,0.5058074914455903,0.4941925085544097,-0.023231010501666403,1,5.022279453347437,1.0821248424472287,0,32,7.1222258830675855,16,6.038708846550435,2.0,0.9999781852618675,2.1814738132474476e-05,-10.732902940496844
2,0,9.957094817771576,1.9168954069027677,0,55,12.893234821036458,60,10.975139219430275,0.9166666666666666,0.8757985420570974,0.1242014579429026,-1.9532311815662682,0,10.757476920611225,1.466164623387158,0,7,13.243279225891456,54,11.775413470692001,0.12962962962962962,0.023779305807372086,0.9762206941926279,3.7148729834028518,1,15.111209612921812,2.016380405635573,0,97,18.147169626434334,61,16.128676830790937,1.5901639344262295,1.0,1.1206234534957153e-17,-39.030061395559756,0,9.623184300609864,1.2158047229750082,0,60,11.858237965614535,61,10.641573195229284,0.9836065573770492,0.9999363791081233,6.362089187673538e-05,-9.662505030015089
3,1,15.39388469606638,1.3824753403896466,0,16,17.77986027498264,10,16.3956253338838,1.6,0.6589255104951893,0.3410744895048107,-0.6585095962400579,1,15.743867471348494,2.1829467267962173,1,10,18.930809448007494,44,16.74609837960452,0.22727272727272727,0.07798667053569053,0.9220133294643095,2.4700217590536675,1,20.647488045389764,0.9490095035871491,0,42,22.616711229435168,67,21.665830718004145,0.6268656716417911,0.999830418734125,0.00016958126587498563,-8.682008705704067,0,14.443275591242127,0.9659078338881955,0,78,16.428684415877797,65,15.461549918283708,1.2,0.9999999706219497,2.9378050305330717e-08,-17.343018000313585
4,0,20.28124733339064,1.4150433618342504,0,41,22.700289895641617,22,21.28304209455382,1.8636363636363635,0.9504689827919153,0.04953101720808467,-2.954356445277578,0,21.431247570435517,1.4823463134234771,0,96,23.917376195895486,89,22.43294830713421,1.0786516853932584,0.9754768662760134,0.024523133723986616,-3.6833095393723405,0,25.116928907926194,1.2319544131169096,0,56,27.353307211888023,59,26.11914677929599,0.9491525423728814,0.9999999745852209,2.5414779083909385e-08,-17.48793495302115,1,18.92930387123488,1.4330008501419798,1,26,21.38191158848349,84,19.947570692165755,0.30952380952380953,2.760292703296585e-07,0.9999997239707297,15.102758648904008
5,1,25.20395013387315,2.6666421729605645,0,50,28.88709992193617,62,26.218756617279723,0.8064516129032258,0.7635766119645905,0.23642338803540952,-1.1723892479365714,1,26.417632590280846,1.932372703566216,1,15,29.354216641862877,56,27.419769474188797,0.26785714285714285,0.049839683870469664,0.9501603161295303,2.9478191926065866,0,29.853582964278758,2.1504853717051446,1,14,33.02367599320132,57,30.87147684779484,0.24561403508771928,0.010073168637408259,0.9899268313625917,4.587755714334692,1,23.88282338879071,1.6825330982683226,1,40,26.584900144371204,93,24.901271542650647,0.43010752688172044,1.5022431448574736e-05,0.9999849775685514,11.105951021454596
6,0,31.38787542632781,1.8659507374977693,1,54,34.257791784009896,80,32.38980608840939,0.675,0.5900465312265188,0.4099534687734812,-0.3641577378141941,1,31.854542567045428,3.3344075036002323,0,15,36.19267114822287,19,32.85660517949145,0.7894736842105263,0.5858293570115752,0.41417064298842476,-0.3467504774977472,1,35.52408290584572,1.3992701646639034,1,14,37.92684501281474,57,36.52579707466066,0.24561403508771928,0.010073168637408259,0.9899268313625917,4.587755714334692,1,29.086767596774735,0.9994619271019474,0,88,31.105099602718838,96,30.104361629113555,0.9166666666666666,0.9999935353100018,6.464689998216433e-06,-11.949149032957822
7,1,36.75821489421651,1.5163294427329674,0,46,39.2941523892805,40,37.77616171585396,1.15,0.9066203515395612,0.09337964846043882,-2.2730503615336684,1,38.69527854945045,2.133659732528031,0,75,41.84616727824323,70,39.71062271064147,1.0714285714285714,0.9475553319847524,0.052444668015247616,-2.8941266618817294,1,40.42720767867286,2.316567743429914,0,43,43.747960696113296,97,41.429177056765184,0.44329896907216493,0.9853053962568001,0.014694603743199912,-4.205471305988188,1,33.60559777438175,0.9989202988799661,0,53,35.60801041056402,40,34.60781209007837,1.325,0.9999981553522459,1.8446477541226926e-06,-13.203220373224406
8,1,41.79486744920723,1.2656598148168996,0,45,44.08092978352215,40,42.81336063996423,1.125,0.8953061111222522,0.10469388887774782,-2.1461249351552016,0,44.34664648701437,2.34950988763012,1,15,47.699587082490325,42,45.34827137202956,0.35714285714285715,0.15430530638672535,0.8456946936132747,1.7012252633779201,1,46.24762291915249,1.6995922182686627,1,17,48.95085957320407,82,47.249488001223654,0.2073170731707317,0.0007747866832021888,0.9992252133167978,7.162147726993986,0,38.10923193860799,2.7000591800315306,1,22,41.82873561582528,31,39.127379056066275,0.7096774193548387,0.6647153666527558,0.33528463334724423,-0.6843791060999376
9,0,46.58175348525401,1.6158081205794588,0,60,49.217661113711074,70,47.60019057733007,0.8571428571428571,0.8649216921105324,0.13507830788946765,-1.8567843047718025,1,50.20037167321425,1.4989187186583877,1,40,52.71997735509649,93,51.21923385071568,0.43010752688172044,0.0359563587140439,0.9640436412859561,3.288830619495514,0,51.45101483212784,1.7496823711553589,0,53,54.22072757547721,15,52.46922555437777,3.533333333333333,0.9999999999189043,8.109568777148917e-11,-23.235391327884646,1,44.33019457536284,1.4152653861092404,1,55,46.765284902066924,95,45.34867077844683,0.5789473684210527,0.01395425927386984,0.9860457407261302,4.2579179577582735
10,0,51.7183868404245,1.21613815438468,0,53,53.95433255273383,15,52.73646798275877,3.533333333333333,0.9932350560172244,0.006764943982775599,-4.989213367899949,0,55.22024086071178,1.4995014333399013,0,77,57.72328677936457,72,56.222072362550534,1.0694444444444444,0.9503733289998627,0.04962667100013728,-2.9523264743062954,0,56.72178001748398,1.9996582723688334,0,62,59.7411166629754,17,57.73952535807621,3.6470588235294117,0.9999999999990699,9.301201939833017e-13,-27.703462576271072,0,49.26621922082268,2.483032534015365,0,37,52.7528333759401,52,50.268550869543105,0.7115384615384616,0.7602467048183109,0.23975329518168906,-1.1540325342987519
11,1,56.45464662602171,2.317101075546816,1,6,59.79165165440645,8,57.47286406438798,0.75,0.38591176546811845,0.6140882345318815,0.4645298658072549,0,60.22403146896977,0.9656557851703838,0,87,62.194360428256914,76,61.226649536867626,1.144736842105263,0.97763370829291,0.022366291707090067,-3.777580077527127,1,62.24206678417977,1.86546876328066,1,15,65.12790369673166,42,63.260712073300965,0.35714285714285715,0.17521041572054896,0.824789584279451,1.549140677250884,1,55.25428127381019,1.2994181545218453,1,19,57.57272200041916,37,56.271983157726936,0.5135135135135135,0.055528226137376624,0.9444717738626234,2.833734331232808
12,0,62.29147111158818,1.2992486733710393,0,45,64.59432273940183,42,63.29334172443487,1.0714285714285714,0.8807876422403202,0.11921235775967974,-1.9999101334178413,1,64.69408625597134,3.446754891658202,0,88,69.14794908137992,96,65.69922797218896,0.9166666666666666,0.8923404634555923,0.1076595365444078,-2.1148739369290754,1,67.6285018188646,1.8182933690259233,0,6,70.46599474723917,8,68.64659915864468,0.75,0.3378022580774086,0.6621977419225914,0.6731035261352992,0,60.07347735669464,1.4994085939833894,0,53,62.57613809115719,57,61.07539537677076,0.9298245614035088,0.9994451452161502,0.0005548547838497703,-7.4962491204027675
13,1,67.09527246560901,1.1654001018032432,0,46,69.28089493920561,36,68.11368624912575,1.2777777777777777,0.9286066139270388,0.07139338607296114,-2.5654799650083904,0,71.64841959881596,1.2659493942046538,0,53,73.9341161068296,15,72.66645886469632,3.533333333333333,0.9944716857830523,0.00552831421694771,-5.192328701250504,0,72.96605716680642,1.9486207637237385,0,35,75.93506820325274,62,73.98478186316788,0.5645161290322581,0.9969271617666557,0.0030728382333442173,-5.782076069405471,0,65.07724900206085,1.1657280022045597,0,51,67.26228204497602,7,66.09522031748202,7.285714285714286,0.9999999999223544,7.764557963424338e-11,-23.278866494673206
14,0,71.7817589371698,2.8836000784067437,1,45,75.6853004990844,60,72.79980373382568,0.75,0.6646257254683573,0.3353742745316427,-0.683976917781595,1,76.43436697043944,2.433042726595886,0,37,79.87100791069679,54,77.43623205239419,0.6851851851851852,0.45745237428006014,0.5425476257199399,0.17060309154435982,0,78.43608943535946,1.6663253341102973,0,71,81.12269086961169,64,79.4542843552772,1.109375,0.9999999999804174,1.9582566929024524e-11,-24.656381387857795,0,69.7638144857483,0.9656743529485539,0,53,71.7485521021299,15,70.78158432012424,3.533333333333333,0.9999999995821193,4.178806889826068e-10,-21.595825156785644
15,0,78.18599975667894,2.229938813019544,1,7,81.43899076199159,54,79.20726903958712,0.12962962962962962,0.02411419560843131,0.9758858043915687,3.7005448793880853,0,82.37215990794357,1.5164617880946025,0,60,84.90801523043774,70,83.38984796486329,0.8571428571428571,0.7543579723882111,0.24564202761178888,-1.121991715952484,0,83.62265886971727,1.0154318646527827,0,71,85.64208203356247,69,84.62461323547177,1.0289855072463767,0.9999999999548651,4.5134939821440313e-11,-23.821364450435606,1,74.25005491345655,1.066330311819911,1,14,76.33576572255697,57,75.26815778412856,0.24561403508771928,5.81945199451539e-06,0.9999941805480055,12.054298640203212
16,1,83.93975283426698,1.2990784022258595,0,72,86.24283004179597,51,84.94177673070226,1.411764705882353,0.9915820055145451,0.008417994485454884,-4.768930037818337,0,87.40833878517151,1.9498122670920566,1,35,90.3780036472017,62,88.42649459396489,0.5645161290322581,0.2461546694454364,0.7538453305545636,1.1192271391322595,1,88.14232973661274,1.7832028842531145,0,42,90.9294622906018,39,89.14403955976013,1.0769230769230769,0.9999984200306902,1.5799693098827623e-06,-13.358103555268325,1,78.83620582032017,0.9654633904574439,0,58,80.80461241374724,58,79.83789233479183,1.0,0.9999366660316007,6.333396839932048e-05,-9.6670254111904
17,1,88.74362016329542,1.3824970686109737,0,69,91.14554711186793,61,89.76123789930716,1.1311475409836065,0.974841516381317,0.025158483618683027,-3.6570797499961323,0,92.87923070602119,1.2998736596200615,0,71,95.19953295914456,69,93.89750542817637,1.0289855072463767,0.9248815703048977,0.07511842969510231,-2.510599766483598,1,93.42908737796824,2.5329425391973928,1,26,96.96579208108597,84,94.43120134819765,0.30952380952380953,0.06332379567542412,0.9366762043245759,2.694076478607463,0,83.30568263342138,1.6163596253609285,0,45,85.94149742263835,42,84.32384160277434,1.0714285714285714,0.9998008878553672,0.00019911214463270063,-8.521443219131376
18,1,93.64682947914116,1.0494580556405708,0,74,95.71567593328655,60,94.66439269680995,1.2333333333333334,0.9874426749869787,0.012557325013021349,-4.364814282757149,0,97.69870293640997,1.015972307883203,0,71,99.73463648092002,64,98.71687612798996,1.109375,0.9505374565904767,0.04946254340952331,-2.9558118840652647,0,99.46688955987338,1.4479629874695092,0,68,101.93647066911217,63,100.48678442637902,1.0793650793650793,0.9999999999178679,8.21321072531857e-11,-23.22269210089046,1,88.44372200989164,1.2993727223947644,0,14,90.76162545394618,8,89.46092848770786,1.75,0.9878140008002393,0.012185999199760673,-4.3952067355681415
19,0,98.21639336366206,1.8828617096878588,1,14,101.11903853272088,57,99.23446620965842,0.24561403508771928,0.04602779435533766,0.9539722056446623,3.0313890973448543,1,102.23536260263063,1.6665979260578752,0,87,104.92136196419597,89,103.25312295556068,0.9775280898876404,0.9321395137680553,0.0678604862319447,-2.620028571814793,0,104.43695935921278,1.432261691428721,0,86,106.87324237450957,59,105.43875016982201,1.4576271186440677,0.9999999999999971,2.8403142497492466e-15,-33.494861697538816,1,93.26222278585192,1.483176336158067,1,43,95.76490445842501,93,94.28034303919412,0.46236559139784944,6.75846062476726e-05,0.9999324153937523,9.602062732186594
20,0,110.64232934173197,1.916116741951555,1,28,113.57712495303713,41,111.6593130051624,0.6829268292682927,0.47883397825829843,0.5211660217417016,0.08471471414742401,0,114.44464566209354,1.4152531391009688,0,78,116.87942349573132,34,115.4622112500947,2.2941176470588234,0.9984283884882459,0.001571611511754098,-6.4540808976555795,1,116.39569842000492,1.8994096212554723,0,37,119.31495431507938,54,117.41325531667098,0.6851851851851852,0.9997213378160367,0.0002786621839633556,-8.185231618915484,0,105.27221703378018,1.4995196061208844,1,14,107.789794078446,57,106.28896089526825,0.24561403508771928,5.81945199451539e-06,0.9999941805480055,12.054298640203212
21,0,116.07783566741273,2.7673921562964097,1,38,119.86554856563453,43,117.09604164899793,0.8837209302325582,0.7385266357455869,0.26147336425441314,-1.0383247478998885,1,119.38023139501456,1.3832022520946339,1,53,121.7825952807907,40,120.39817545132246,1.325,0.9510267571530591,0.04897324284694098,-2.96626811334217,0,121.81546354852617,1.2493418286321685,0,60,124.08445767627563,61,122.83328197535593,0.9836065573770492,0.9999999958000159,4.1999841666002306e-09,-19.288185077321298,0,110.29030923778191,0.8824808711651713,0,58,112.17564323800616,58,111.2921972332988,1.0,0.9999366660316007,6.333396839932048e-05,-9.6670254111904
22,1,122.36535380070563,1.5498128201579675,0,58,124.93496548756957,58,123.38348669593688,1.0,0.9227436439550305,0.07725635604496955,-2.4802222624390318,1,124.28303063777275,1.6665742225013673,0,46,126.95311616058461,40,125.28476574481465,1.15,0.8946620037378472,0.10533799626215283,-2.1392718052418553,1,126.58540345181245,1.6659326436929405,0,46,129.27098246873356,36,127.60331155755557,1.2777777777777777,0.999999886716321,1.1328367902333619e-07,-15.993370616990664,1,114.67669291445054,1.380968578509055,0,12,117.078810677398,9,115.69657750928309,1.3333333333333333,0.9550799302683595,0.04492006973164058,-3.05691035137366
23,1,127.43574415240437,2.316858508158475,0,52,130.7721905647777,68,128.45354638178833,0.7647058823529411,0.7286127657030683,0.2713872342969317,-0.9875956954814242,1,129.45361749269068,1.233343051862903,1,43,131.70642163418233,93,130.47136678395327,0.46236559139784944,0.050478837437459956,0.94952116256254,2.934403630309664,1,131.77157347963657,1.0325253549963236,0,56,133.8240043676924,46,132.78956770861987,1.2173913043478262,0.999999997101229,2.8987709700426423e-09,-19.65897899031884,0,119.57986311928835,0.8985124381724745,0,38,121.48175846296363,43,120.5819822254125,0.8837209302325582,0.9907758780979368,0.009224121902063223,-4.676666352806812
24,1,133.27259115641937,1.0657760415924713,0,53,135.34173509129323,55,134.27418364642654,0.9636363636363636,0.8874462762039614,0.11255372379603859,-2.064917333152736,0,134.206500646309,1.9671179050346836,0,58,137.19326057902072,58,135.22420095012058,1.0,0.8759056415662442,0.12409435843375587,-1.9542161386912509,0,136.32479606952984,2.1330588451819494,1,15,139.47749338659924,42,137.34269627404865,0.35714285714285715,0.17521041572054896,0.824789584279451,1.549140677250884,1,123.98311154614203,1.2825976511230692,1,42,126.28507547243498,67,125.00102636788506,0.6268656716417911,0.20180519171289102,0.798194808287109,1.3750498537079083
25,0,137.84215820138343,3.5843024174682796,1,22,142.44673434854485,31,138.86057396011893,0.7096774193548387,0.47123348677623966,0.5287665132237603,0.11519326373142506,1,139.6932621592423,2.9005343592725694,0,94,143.61412832210772,46,140.71169293031562,2.0434782608695654,0.9993084263493615,0.0006915736506385664,-7.275849091117442,0,141.9782167429803,1.382790993899107,0,38,144.38146042905282,43,142.99647487245966,0.8837209302325582,0.9999739595418543,2.6040458145674726e-05,-10.555833106061552,0,128.7862503832439,1.1152194800088182,0,62,130.90479113918263,17,129.78817077365238,3.6470588235294117,0.9999999999910205,8.97945754958611e-12,-25.436081641934894
26,1,144.94761138351168,3.3503576880320907,0,25,149.31735865515657,37,145.96568422950804,0.6756756756756757,0.4568423140889115,0.5431576859110885,0.17306138980810487,1,146.11427567980718,1.5824341750703752,1,42,148.70037996955216,67,147.1161929097725,0.6268656716417911,0.32356355337305154,0.6764364466269485,0.7374429486136123,1,146.88179069990292,1.2654927039984614,0,45,149.1509357409086,40,147.8835017081583,1.125,0.9999996232911462,3.767088537986015e-07,-14.791792842235655,0,133.40612762991805,0.8988916964735836,0,59,135.32436387310736,65,134.42418625380378,0.9076923076923077,0.9995978938121209,0.0004021061878790753,-7.818392168219271
27,0,151.818320233142,1.368615027400665,0,78,154.19023638858926,34,152.82027736434247,2.2941176470588234,0.9988574031413492,0.001142596858650832,-6.773308410856707,1,151.20437363907695,1.9657245257403702,0,53,154.18752232100815,55,152.22002673777752,0.9636363636363636,0.8362561652651356,0.16374383473486442,-1.6306317605971696,1,151.6513343573315,1.215349217876792,0,58,153.87051013403106,58,152.65343805600423,1.0,0.9999999926020788,7.397921182114033e-09,-18.722066790140097,1,137.8254182903329,1.0824401009595022,0,16,139.9111828277819,10,138.82736475486308,1.6,0.9912193946544664,0.008780605345533618,-4.726390545735276
28,1,156.68827372661326,1.182487666257657,1,40,158.89100114733446,93,157.70678548514843,0.43010752688172044,0.0860227060987736,0.9139772939012264,2.3631944427771927,1,156.68855698523112,1.6647024244302884,0,42,159.37462627247442,39,157.7081164449919,1.0769230769230769,0.8526759388694599,0.1473240611305401,-1.7557449098437226,1,156.37145986023825,2.3998003363376483,0,25,159.79142844502348,37,157.38973221194465,0.6756756756756757,0.9902579944865961,0.009742005513403911,-4.6215185083438595,1,142.41213373909704,1.115293356240727,0,82,144.5306069398066,40,143.41393284592777,2.05,0.9999999999991039,8.960258162428597e-13,-27.74080716957889
29,1,161.39139699819498,1.5331467855721712,0,54,163.92769913445227,78,162.39335531461984,0.6923076923076923,0.6248938023744999,0.3751061976255002,-0.5103725395515548,0,161.87489609909244,1.7468047483125702,0,60,164.64513308811001,40,162.89643046772107,1.5,0.9779741057733404,0.02202589422665956,-3.7932644214424847,1,162.29166508640628,0.9328807516722009,0,12,164.22852647060063,9,163.29358547693118,1.3333333333333333,0.9138265324916618,0.08617346750833825,-2.361278435283796,1,147.03194106009323,0.9973100310890004,1,10,149.0333138962742,44,148.03487754694652,0.22727272727272727,6.156665758005886e-05,0.9999384333424199,9.695328538464047
30,0,166.42846318194643,1.315537424874492,0,87,168.76430673152208,85,167.44705711316783,1.0235294117647058,0.9850379003448353,0.014962099655164762,-4.187159803960217,1,167.14525595202576,2.2320954498136416,0,16,170.38176423090044,10,168.14761802053545,1.6,0.7801043571588675,0.21989564284113255,-1.2662746188733638,1,166.72863590240013,1.0656081407796592,0,16,168.81411836645566,10,167.74684148887172,1.6,0.9869847385091604,0.013015261490839635,-4.32853194706838,0,151.5349127074005,1.2661255914717913,0,55,153.82020190765616,60,152.55275523290038,0.9166666666666666,0.999442632784698,0.0005573672153019854,-7.491728739227453
31,0,171.26505655690562,1.065892584505491,0,78,173.35065121820662,65,172.28282678639516,1.2,0.9890886343749535,0.010911365625046417,-4.506978983927616,0,172.88250220450573,1.865970490500331,0,60,175.76913437445182,61,173.90087450656574,0.9836065573770492,0.8725141537749114,0.12748584622508866,-1.9233735275994843,1,171.31671944679692,0.8489568025106564,0,62,173.18371235462837,43,172.33295644528698,1.441860465116279,0.9999999999285036,7.149636535280565e-11,-23.361374501675687,1,156.32115163374692,0.9320270252646878,0,66,158.25621351611335,59,157.3229554813588,1.11864406779661,0.9999983938838096,1.6061161903790649e-06,-13.341689991256088
32,1,175.85152035194915,1.0314136538654566,0,94,177.88717024284415,46,176.85384093911853,2.0434782608695654,0.9996392001867607,0.00036079981323937257,-7.926826422488021,1,178.26947768230457,2.116284168907441,1,54,181.40546037221793,78,179.28746598528232,0.6923076923076923,0.4257526579361478,0.5742473420638522,0.2992016505498824,1,175.68405487237033,1.482134165824391,1,4,178.1703265097458,22,176.68615225004032,0.18181818181818182,0.016654511181296572,0.9833454888187034,4.0782794005519385,0,160.7594245702494,0.8825097106164321,0,50,162.65990283084102,7,161.7759882840328,7.142857142857143,0.9999999998718181,1.2818194725832508e-10,-22.77757039824719
33,1,180.38752342713997,1.3655442199669778,1,19,182.75700047728606,37,181.38931858341675,0.5135135135135135,0.2819895827329608,0.7180104172670392,0.9346139480789095,0,183.9065985424677,3.283545401878655,0,37,188.21065273531713,52,184.92516797990538,0.7115384615384616,0.5018704301470478,0.49812956985295215,-0.007481755488306085,1,180.67124502616934,1.2826897002523765,1,19,182.9738418397028,37,181.6888781695161,0.5135135135135135,0.8053592907589253,0.19464070924107474,-1.4201331594403257,1,165.160410878947,1.2992380067007616,0,6,167.46301914937794,8,166.16251971351448,0.75,0.5950394290951071,0.4049605709048929,-0.38483796416000937
34,0,185.25728808157146,2.033336019725539,0,28,188.29429619130678,18,186.25921123742592,1.5555555555555556,0.8315644337134837,0.16843556628651635,-1.5967555058322238,1,190.71103080851026,3.3171706062275916,1,25,195.04794378764927,37,191.7289693338098,0.6756756756756757,0.4813611787207783,0.5186388212792217,0.07458984851008939,0,185.4744597148383,1.11591202148702,0,62,187.61025356582832,17,186.49261157307774,3.6470588235294117,0.9999999999990699,9.301201939833017e-13,-27.703462576271072,1,169.96351139515173,0.9660081793554127,1,3,171.93272154219449,18,170.96543573623057,0.16666666666666666,0.011249790346145372,0.9887502096538546,4.476092238542549
35,1,190.79468335094862,1.1990845651598647,0,32,192.99739891977515,16,191.7964789022226,2.0,0.904708485807365,0.09529151419263503,-2.250672013083454,0,197.54891010629945,2.4502788338577375,0,87,201.01907353510614,85,198.56695411296096,1.0235294117647058,0.9514871867212127,0.04851281327878728,-2.9761982658801265,0,190.1102804299444,0.9995227665640414,0,60,192.12969845801126,40,191.12851169530768,1.5,0.9999999998740651,1.2593487412561025e-10,-22.79525621449449,0,174.43341171334032,1.0826218287693337,0,87,176.5350221392,85,175.4514142385451,1.0235294117647058,0.9999997342206296,2.65779370358596e-07,-15.140599041298747
36,1,195.49772207951173,1.0326675769174471,1,14,197.55037104117218,57,196.51561122236308,0.24561403508771928,0.04602779435533766,0.9539722056446623,3.0313890973448543,1,203.51920588046778,1.4325188759248704,1,14,205.95522578514647,57,204.52099155518226,0.24561403508771928,0.04089456094066213,0.9591054390593379,3.1550039458515355,0,194.63047356717288,1.4157556565478444,1,24,197.06627026258502,90,195.64849742571823,0.26666666666666666,0.00846574686109225,0.9915342531389078,4.763225253148592,0,179.0367663325742,1.3816686262143776,1,15,181.42182181496173,42,180.03884158690926,0.35714285714285715,0.0014752673810825012,0.9985247326189175,6.517439673649112
37,0,200.0505294605391,1.0828082975931466,0,58,202.15358146314975,58,201.06868052866776,1.0,0.9227436439550305,0.07725635604496955,-2.4802222624390318,0,208.45632010360714,1.8159779177512974,0,12,211.29235249222256,3,209.4744529988384,4.0,0.8048680358694215,0.19513196413057854,-1.4170022645732319,0,199.56657959520817,1.248098572366871,0,37,201.81944813160226,52,200.5696986002149,0.7115384615384616,0.9998004484512618,0.00019955154873817964,-8.519238393884358,0,183.92311208345927,0.9158654833445325,0,71,185.85841218743008,69,184.94119480601512,1.0289855072463767,0.9999962401531013,3.7598468987251962e-06,-12.491128559961671
38,1,204.6538216600893,1.2155850691488013,1,15,206.87350034923293,42,205.65588269231375,0.35714285714285715,0.14089785176538727,0.8591021482346127,1.8078526579361804,0,213.7928151084343,2.299555240548216,1,22,217.09612263634335,31,214.79489036276937,0.7096774193548387,0.5262851713608655,0.4737148286391345,-0.10523770340206201,0,204.32054205494933,1.1821518645156175,0,62,206.52270493377,16,205.3386571725132,3.875,0.999999999999213,7.870646804717824e-13,-27.870465963755507,0,188.35966927092522,1.8992132759885862,0,86,191.27825869841035,59,189.37777174648363,1.4576271186440677,0.9999999999289482,7.105180053908649e-11,-23.367611919776422
39,0,209.37487713620067,1.315199647913687,0,62,211.70933283714112,17,210.39240045263432,3.6470588235294117,0.9974909212756496,0.002509078724350341,-5.985327403568795,0,219.60029408324044,2.3504659347236156,1,45,222.96704284357838,60,220.61487814749125,0.75,0.5597828974156185,0.44021710258438146,-0.24028100518657072,0,209.0236029069638,1.5827363964635879,0,41,211.62596039276104,22,210.04127990209963,1.8636363636363635,0.9999998424616751,1.5753832495640775e-07,-15.663596917686515,0,193.77927360963076,0.9154514597030357,0,62,195.697972864029,17,194.78120111115277,3.6470588235294117,0.9999999999910205,8.97945754958611e-12,-25.436081641934894
40,0,221.23122394573875,1.7166335606016219,1,12,223.96727395418566,23,222.2489100273233,0.5217391304347826,0.31011358798155453,0.6898864120184455,0.7995883205666562,1,232.48993661650456,1.9165042967069894,1,3,235.42536313994788,18,233.50699929206166,0.16666666666666666,0.2725119600535729,0.7274880399464271,0.9819150557293166,0,221.14931046089623,1.950158735504374,0,45,224.11782016512007,42,222.166401580791,1.0714285714285714,0.9999994739063475,5.260936525623912e-07,-14.457786067266781,0,205.20747802674305,1.0819016329478472,1,7,207.30588727490976,54,206.2227344843559,0.12962962962962962,4.767568532182409e-07,0.9999995232431468,14.556258740944397
41,0,226.46849429700524,1.0317557766102254,0,71,228.5206352104433,64,227.48708032700233,1.109375,0.9756746081380028,0.024325391861997236,-3.691608400147026,0,237.92553499131463,1.7158142045373097,1,14,240.6451346683316,57,238.92751582618803,0.24561403508771928,0.04089456094066213,0.9591054390593379,3.1550039458515355,0,226.61842421302572,1.3158862635027617,0,55,228.9534705299884,60,227.63634930644184,0.9166666666666666,0.999999948791863,5.120813699075552e-08,-16.787367340719452,1,209.80733438255265,1.8327707668067887,0,15,212.65933196793776,19,210.82527804374695,0.7894736842105263,0.7691924101179626,0.23080758988203748,-1.203756727227215
42,1,231.02124676445965,1.2825194291071966,1,43,233.30749596247915,97,232.02317782165483,0.44329896907216493,0.09322759147558612,0.9067724085244139,2.2748477671165137,0,243.14648301084526,1.115750441676937,0,55,245.28187231952325,60,244.1640083026141,0.9166666666666666,0.8056054582376273,0.19439454176237267,-1.4217043024727354,0,231.4545288978843,1.099260209244676,0,51,233.55729369132314,7,232.45669936190825,7.285714285714286,0.999999999938025,6.197500370732488e-11,-23.504289978125637,1,215.16061354521662,1.015451222541742,1,24,217.1793516735779,69,216.16247467661742,0.34782608695652173,1.5575622163255254e-05,0.9999844243778367,11.069787972068703
43,0,235.81080104107969,0.9653721314389259,0,62,237.79367357550655,16,236.82623725140002,3.875,0.9976673962194795,0.0023326037805204707,-6.058434804437475,0,247.78193789965007,1.3162528799148276,0,28,250.1016598084243,18,248.78366352512967,1.5555555555555556,0.8777874982096565,0.12221250179034351,-1.9716431874860936,1,236.05807828204706,1.2155218594707549,0,72,238.29319357662462,51,237.07630717707798,1.411764705882353,0.99999999999869,1.3100056706635566e-12,-27.36098964997274,0,219.68065418908373,1.015341000747867,1,7,221.69904584914912,54,220.682661097846,0.12962962962962962,4.767568532182409e-07,0.9999995232431468,14.556258740944397
44,1,240.29410261160228,1.2160085743525997,0,33,242.51433596608695,25,241.2960289280163,1.32,0.8480812790169496,0.15191872098305043,-1.7196308316437987,1,252.6024890410481,3.600272750016302,0,52,257.22278189170174,68,253.62086173822172,0.7647058823529411,0.5878144985366457,0.4121855014633543,-0.3549379251562192,1,240.79461461026222,1.082486718078144,0,50,242.89643165282905,62,241.8124650371028,0.8064516129032258,0.9999989695762908,1.030423709269585e-06,-13.785539441664302,1,224.1993938976666,1.1479079951532185,1,15,226.35223383177072,42,225.20302569156047,0.35714285714285715,0.0014752673810825012,0.9985247326189175,6.517439673649112
45,1,245.01430673152208,0.9326168510597199,1,24,246.96672165917698,69,246.0322492076084,0.34782608695652173,0.06664387739032895,0.933356122609671,2.6394236439843417,0,259.72342505073175,1.2486789167160168,0,62,261.9763382289093,17,260.7255196629558,3.6470588235294117,0.9977114023805004,0.0022885976194995925,-6.077524821775383,0,245.39772468688898,1.733196089277044,1,6,248.15023253276013,26,246.4156805948587,0.23076923076923078,0.02462248596572192,0.9753775140342781,3.679164500855181,0,228.85325980454218,1.5822682493599132,1,45,231.45514084701426,60,229.87168504483998,0.75,0.9226398929506792,0.07736010704932078,-2.4787677749672867
46,0,249.46714555937797,1.0153145316289738,0,51,251.48566640436184,7,250.4689715304412,7.285714285714286,0.9951321429316828,0.004867857068317126,-5.320221722092457,1,264.476615561638,1.2801771137164906,1,24,266.77995271910913,69,265.4984000038821,0.34782608695652173,0.04556021358283191,0.9544397864171681,3.0420897307613743,0,250.65107480238657,1.0652928822673857,0,96,252.7189786414383,89,251.65286245243624,1.0786516853932584,0.999999999999998,2.0510955678376176e-15,-33.820402321178236,0,233.95624899258837,1.1325191920623183,0,62,236.09186704142485,16,234.95807101298124,3.875,0.9999999999935811,6.418826306232986e-12,-25.77178583327734
47,0,253.98709770967253,0.9660058089066297,0,50,255.97276766959112,7,255.0050172720803,7.142857142857143,0.9944770028330622,0.005522997166937816,-5.19329629571399,1,269.28085543308407,1.2476545240497217,0,97,271.5323582442943,61,270.28297967498656,1.5901639344262295,0.9981572277797602,0.0018427722202398098,-6.294639727558291,0,255.22097922919784,2.333526518079452,0,43,258.5736661957344,7,256.23885493993293,6.142857142857143,0.9999999955740292,4.4259708385275285e-09,-19.235776179587592,0,238.59314308781177,1.2659098881995305,1,24,240.87847851030529,90,239.61119144014083,0.26666666666666666,1.3513508756446413e-08,0.9999999864864912,18.119575989677962
48,0,258.4732591251377,1.4993797545321286,0,60,260.9926226348616,40,259.49157848919276,1.5,0.9828760732369224,0.017123926763077616,-4.050006330832212,1,274.0330349834403,1.2656187284737825,0,12,276.3024407646153,9,275.03504465764854,1.3333333333333333,0.7073912931499201,0.2926087068500799,-0.8827477234752316,0,261.0749193285592,1.1155319730751216,0,40,263.209646910429,15,262.0928961748723,2.6666666666666665,0.9999999165531962,8.344680377027955e-08,-16.299056405260323,0,243.3796099643223,0.9653752918820828,0,96,245.36459528387059,89,244.3979597480502,1.0786516853932584,0.9999999888234405,1.1176559485145924e-08,-18.309447143763105
49,0,263.4928628318012,1.1989166643470526,0,53,265.7122705092188,57,264.5115480220411,0.9298245614035088,0.8719936792119349,0.12800632078806512,-1.9187025314153752,0,278.80291760293767,2.9500331060262397,0,38,282.7732414264465,43,279.82142817636486,0.8837209302325582,0.716467452272977,0.283532547727023,-0.9270058968639239,0,265.71088226547,1.815998065751046,0,60,268.53004397812765,70,266.71261342195794,0.8571428571428571,0.9999999811198477,1.8880152312891244e-08,-17.78515458996136,1,247.86589582404122,1.9663076354190707,0,54,250.83515258820262,78,248.86753572139423,0.6923076923076923,0.7206639089483431,0.2793360910516569,-0.9477571986373462
50,1,268.2159354882315,1.0654667090857401,1,28,270.2984755394282,82,269.23123224207666,0.34146341463414637,0.04385091972072752,0.9561490802792725,3.0821181497633185,1,285.2742867572233,1.2820030846633017,0,58,287.5594234641176,58,286.27645880146883,1.0,0.8759056415662442,0.12409435843375587,-1.9542161386912509,0,271.0314108884195,1.3329615810653195,0,12,273.38354832539335,3,272.04928975971416,4.0,0.9665376316783898,0.03346236832161015,-3.363298760190422,1,253.33697737404145,1.1811480150790885,0,46,255.52124913479201,36,254.3389273941284,1.2777777777777777,0.9999839046566236,1.6095343376461085e-05,-11.03696446361209
51,1,272.7992253648117,1.2828801196301356,0,12,275.10214494308457,9,273.81749534618575,1.3333333333333333,0.5557461005323037,0.44425389946769633,-0.22391529159486856,1,290.06081407808233,1.5994557642843574,1,4,292.680205795099,22,291.07886480074376,0.18181818181818182,0.22794658373078847,0.7720534162692115,1.2199424200660336,1,275.8847520756535,2.6337280781008303,0,43,279.53783141647,93,276.9026704528369,0.46236559139784944,0.9924113566064562,0.007588643393543864,-4.87348485592594,0,258.02256389707327,1.7833431308390573,0,54,260.82521680928767,80,259.04070153308567,0.675,0.5686508611649506,0.4313491388350494,-0.27634881595244765
52,0,277.60282405256294,1.9662128208437935,1,37,280.5886658639647,52,278.62062430672813,0.7115384615384616,0.5630212276014637,0.4369787723985363,-0.25343271370329906,0,295.18047364626545,2.5502845228184015,1,45,298.75116384914145,42,296.1987685165368,1.0714285714285714,0.863308392517846,0.13669160748215403,-1.8430446284805715,1,282.0386333898641,1.3161888802424073,0,14,284.37434577930253,8,283.0568050011061,1.75,0.973283921704184,0.02671607829581602,-3.595410272402745,1,263.32762035925407,1.0144465829944238,0,62,265.36163114279043,43,264.34586821717676,1.441860465116279,0.9999999445493678,5.545063217065473e-08,-16.70777266703121
53,1,283.08935524499975,2.4833185580791906,1,15,286.57645532500464,19,284.09119899373036,0.7894736842105263,0.4684463785736377,0.5315536214263623,0.12638243795653248,1,301.25173945270944,3.6507998399902135,0,33,305.922983688768,25,302.26994385395665,1.32,0.874248604294608,0.12575139570539196,-1.9390578715148425,1,286.87540928297676,1.5497768697096035,1,24,289.4440234412905,69,287.8930511176586,0.34782608695652173,0.2216366501279503,0.7783633498720497,1.256154115975407,0,267.86239993106574,2.1163560698041692,0,14,270.99836049764417,7,268.880871393485,2.0,0.9912586505859746,0.008741349414025398,-4.730910926910591
54,0,289.0767729538493,1.3664070327067748,0,96,291.4630317913834,89,290.0948335530702,1.0786516853932584,0.993549069311243,0.006450930688757004,-5.0370590378917015,1,308.42278497316875,2.033111625118181,0,6,311.476076303632,8,309.44093999185134,0.75,0.5653579296122198,0.43464207038778024,-0.26293616861986674,0,291.9449968710542,2.332948149065487,0,14,295.28136545652524,7,292.9470748908352,2.0,0.9772996653862701,0.022700334613729858,-3.7624136598871827,0,273.4994236063212,0.9465865957317874,0,41,275.45249512488954,22,274.5046340631088,1.8636363636363635,0.9999982047108373,1.7952891627088483e-06,-13.230342660276298
55,1,293.9632542106556,1.4333342814352363,0,66,296.4002428044332,59,294.9651702553965,1.11864406779661,0.9684009231750847,0.03159907682491527,-3.422518272598091,0,313.9766534874216,1.2294402462430298,0,43,316.2294848881429,7,314.9980282515753,6.142857142857143,0.9911919732172866,0.008808026782713436,-4.723244792095007,0,297.7826193794608,2.4832723359577358,0,9,301.28554282931145,7,298.8009679779643,1.2857142857142858,0.749245539166782,0.25075446083321795,-1.0945925358009054,0,277.9533369995188,1.5819316576234996,1,6,280.5382616376737,26,278.9554663771996,0.23076923076923078,0.003477917930946428,0.9965220820690536,5.657837480004041
56,0,298.9007777167717,1.0992981350282207,0,87,301.01932716416195,76,299.91815644095186,1.144736842105263,0.9921947777819632,0.007805222218036827,-4.84512641177834,1,318.72998859069776,2.099398480495438,0,56,321.850160947768,46,319.7483502262039,1.2173913043478262,0.9419386842632942,0.058061315736705844,-2.786440561430019,0,303.78654825896956,1.5827087422367185,0,54,306.3887066341704,80,304.8046657468658,0.675,0.999997536032815,2.4639671849359176e-06,-12.913735366213444,0,283.0397273132112,1.0471631474792957,0,95,285.1080748055829,16,284.05966287094634,5.9375,1.0,4.197796528511491e-19,-42.31455701533589
57,0,303.5200236563105,1.016174974036403,0,71,305.5559852500446,69,304.5380945270881,1.0289855072463767,0.9653124633078224,0.03468753669217766,-3.3260713958036243,0,324.3501901823329,2.7667106763692573,0,41,328.1207732446492,22,325.35199481993914,1.8636363636363635,0.9589608507384744,0.04103914926152558,-3.151323779892773,1,308.8897460390581,1.6000637627439573,0,94,311.5092546941014,46,309.9078730084002,2.0434782608695654,1.0,4.5363019901372774e-18,-39.93441953337455,1,287.60884635930415,1.0832278521265835,0,46,289.7115064616082,40,288.62692434107885,1.15,0.9999383606035775,6.163939642246382e-05,-9.694147698242292
58,1,308.05623532354366,1.232397671439685,1,4,310.29225254186895,22,309.0580174428178,0.18181818181818182,0.14907374764179238,0.8509262523582076,1.7418843307257157,1,330.6209044047864,1.6162454528966919,0,66,333.2407599231228,59,331.62272089428734,1.11864406779661,0.9432305469739837,0.05676945302601632,-2.8103123530038494,0,314.009965408477,1.232117178151384,0,87,316.2452948258724,85,315.01186486077495,1.0235294117647058,0.999999999999872,1.2805227092341617e-13,-29.686337847760694,1,292.2124032495776,1.0321998249273747,0,54,294.26382831286173,31,293.23036034277175,1.7419354838709677,0.9999999455429895,5.445701041928575e-08,-16.72585419173247
59,1,312.7929356020177,0.8824879822786897,1,26,314.6946989953285,84,313.8106635599397,0.30952380952380953,0.029823428709716215,0.9701765712902838,3.482183804257612,1,335.74161246430594,1.1328214135719463,0,54,337.8939925476443,31,336.7593064471148,1.7419354838709677,0.9798815078559299,0.020118492144070136,-3.885792254717786,0,318.74658785993233,2.049341512727551,0,22,321.79888442729134,31,319.74825975717977,0.7096774193548387,0.9824129025768222,0.0175870974231778,-4.02284615879872,0,296.76549388922285,1.2489795580040663,0,40,299.0339803638635,15,297.7835280193249,2.6666666666666665,0.9999997173273114,2.8267268863390817e-07,-15.078975903247427
60,1,324.21780017518904,1.1326365250861272,1,10,326.36975201254245,44,325.2352725288365,0.22727272727272727,0.06986957089687262,0.9301304291031274,2.5886945915658774,1,347.4171529865125,1.1154375534970313,0,41,349.5518473832635,7,348.4342516126344,5.857142857142857,0.9888704558737124,0.011129544126287614,-4.4869601326377735,0,331.3063222367782,1.0658048810437322,0,80,333.3904713706579,60,332.32327113486826,1.3333333333333333,0.9999999999999175,8.245918418445946e-14,-30.126472961150842,0,308.5410981741734,1.8988624619087204,0,77,311.45859525864944,72,309.5585681574885,1.0694444444444444,0.9999994914961616,5.085038384081255e-07,-14.49179256449043
61,0,328.87014193751384,1.8496576403267682,0,62,331.722371423617,17,329.8719149703393,3.6470588235294117,0.9974909212756496,0.002509078724350341,-5.985327403568795,0,352.05184501293115,3.451168905943632,1,12,356.52342275937553,23,353.07011933997273,0.5217391304347826,0.4100288278824229,0.5899711721175771,0.3638462057534349,1,335.89134919573553,1.8502928981324658,0,33,338.76086654211394,25,336.90973018924706,1.32,0.9999814323831558,1.856761684413339e-05,-10.894072956695155,0,313.960020242841,1.082370175048709,0,28,316.06211303791497,18,314.97843126102816,1.5555555555555556,0.9996830058430268,0.0003169941569731828,-8.056310172107882
62,1,334.22354119853117,1.5660881395451725,0,42,336.7930193549255,67,335.22515146632213,0.6268656716417911,0.4480503614800797,0.5519496385199203,0.20855116743456947,1,359.0235756478505,1.2485434107948095,0,32,361.2755758406129,16,360.0253553966759,2.0,0.9322828859211602,0.06771711407883986,-2.622297353433226,1,341.2617593795294,1.2154049215605482,0,82,343.4967913161963,40,342.2800562250195,2.05,0.999999999999999,1.0051202985894623e-15,-34.53366916047411,0,318.5630331345601,1.0322061458136886,0,68,320.61509029509034,63,319.58151210309006,1.0793650793650793,0.9999977429855904,2.257014409577198e-06,-13.001465418738325
63,1,339.29393629101105,1.7659691473236308,0,58,342.07976356404833,6,340.31203995179385,9.666666666666666,0.9981334722261022,0.0018665277738978126,-6.28180710761041,0,363.77672744286247,1.2995224505430087,0,14,366.0960104390979,7,364.7947023138404,2.0,0.7853494177985106,0.21465058220148936,-1.2971172299651315,1,345.9982917570742,1.8830947956303135,0,28,348.9004644334782,82,347.01612954202574,0.34146341463414637,0.2153553891454567,0.7846446108545433,1.2929412540040743,0,323.1159910337301,0.8824500563787296,0,60,325.0181186731206,70,324.13434437289834,0.8571428571428571,0.9986961996837797,0.0013038003162203539,-6.641167307933044
64,0,344.58076978393365,1.2629805124597624,0,56,346.866628266871,59,345.60194227693137,0.9491525423728814,0.8959733924921394,0.10402660750786061,-2.1532640088134167,0,368.5966437215684,1.8161683370126411,1,7,371.4329001096776,54,369.6146944442298,0.12962962962962962,0.023779305807372086,0.9762206941926279,3.7148729834028518,1,351.4016140602762,0.8827803272288293,0,75,353.3035587866325,70,352.41962725215126,1.0714285714285714,0.9999999999936883,6.311688006551262e-12,-25.788617962220187,1,327.51941960828844,2.266342084738426,1,25,330.8048332526814,37,328.53787013248075,0.6756756756756757,0.5434010630365127,0.4565989369634873,-0.17404224732329293
65,1,349.3669905376155,1.1826358140679076,0,82,351.55321587389335,40,350.3686572990846,2.05,0.9989335636644053,0.0010664363355947122,-6.842365711158496,0,373.93352075025905,1.1492871523369104,0,62,376.10274780588225,16,374.95162401592825,3.875,0.997905967138959,0.0020940328610410284,-6.166567245291717,1,355.8045812039636,0.9994666679995134,0,15,357.82347656658385,19,356.8227532102028,0.7894736842105263,0.9082070792569675,0.09179292074303246,-2.2919372348911855,1,333.3062748295488,0.9654329707846045,0,87,335.27487421256956,89,334.30800203536637,0.9775280898876404,0.9999989821146753,1.0178853247089693e-06,-13.797782275928947
66,1,354.05385073658545,0.9652737613068894,0,42,356.03960326418746,39,355.0723233842291,1.0769230769230769,0.8627660056519048,0.13723399434809527,-1.8384560568884802,1,378.6029864226002,3.918025675811805,0,50,383.54134745756164,62,379.62135793454945,0.8064516129032258,0.6576654307985452,0.3423345692014547,-0.6529078067969858,1,360.3245183418039,0.9321890003047884,0,74,362.2598374087829,60,361.3262016958324,1.2333333333333334,0.9999999999979743,2.0257368353428164e-12,-26.925087612247307,0,337.7757255686447,1.2321171782677993,0,71,340.01140540500637,64,338.77796200779267,1.109375,0.99999929822305,7.017769500004864e-07,-14.16964951667392
67,0,358.54003546072636,1.1320024526212364,1,95,360.692929913057,16,359.5587028732989,5.9375,0.9999645365985718,3.546340142820969e-05,-10.2469738749269,0,386.0416540247388,2.4663988944375888,0,40,389.5277644774178,15,387.05968775984365,2.6666666666666665,0.974826764101893,0.02517323589810702,-3.656478414778491,1,364.7609372580191,0.8651740479981527,0,41,366.6454475563951,7,365.7789911411237,5.857142857142857,0.999999987133615,1.2866384971122597e-08,-18.168647729953083,1,342.51256609370466,1.0485426996601745,0,75,344.5810277585406,70,343.53111972869374,1.0714285714285714,0.9999992918496893,7.081503107448927e-07,-14.160608754323293
68,1,363.1928730243817,1.932954233023338,0,53,366.129502507858,40,364.19466146454215,1.325,0.9593605752299942,0.04063942477000579,-3.1615283461829407,1,392.02857474714983,1.9833908542059362,0,72,395.0320034797769,51,393.04676176572684,1.411764705882353,0.9856776161122417,0.014322383887758333,-4.231505719506215,1,369.1465801957529,0.8160008311970159,0,54,370.98228270863183,78,370.16492286825087,0.6923076923076923,0.9999982356776969,1.764322303197517e-06,-13.247742141182322,1,347.08229787892196,1.216149611165747,0,53,349.3178208762547,55,348.1002537870081,0.9636363636363636,0.9997163986901375,0.0002836013098624644,-8.167657503087666
69,0,368.6300737657584,2.416667061741464,0,43,372.0663753489498,7,369.6479427604936,6.142857142857143,0.9866765720346369,0.01332342796536313,-4.304818311064718,0,397.5327236755984,2.284619572223164,0,9,400.83629391889554,7,398.5504543989664,1.2857142857142858,0.6696064387704435,0.3303935612295565,-0.7064055813220492,1,373.4855162812164,1.3660779470810667,1,3,375.8687465826515,18,374.50109550356865,0.16666666666666666,0.019005655990568138,0.9809943440094319,3.943830075431448,0,351.8183265540283,0.949323181877844,0,56,353.7707600495778,59,352.82018729043193,0.9491525423728814,0.9997585795350044,0.0002414204649955903,-8.328729026995921
70,0,374.56697979185265,2.351795314345509,0,9,377.9213062606286,7,375.56873228156473,1.2857142857142858,0.49733847868751024,0.5026615213124898,0.010646185803172857,1,403.3376181627391,1.1990557257086039,0,62,405.55614366941154,43,404.3549577759113,1.441860465116279,0.97729984620384,0.02270015379615996,-3.762421810350717,0,378.3698649997823,1.4824521897826344,0,28,380.8717075632885,18,379.3879011052195,1.5555555555555556,0.9999168910913072,8.31089086928272e-05,-9.395275544999944,0,356.2713419740321,1.7826509843580425,0,43,359.05688756878953,7,357.2732817225624,6.142857142857143,0.99999999571651,4.283490049337762e-09,-19.268497723265074
71,1,380.42248986277264,1.3158886338351294,0,87,382.75717706943396,89,381.4394988100976,0.9775280898876404,0.9800569544949891,0.019943045505010935,-3.894730200485496,1,408.05643798969686,1.0824483971809968,0,58,410.1592371534789,6,409.0745823417092,9.666666666666666,0.9986201809800642,0.0013798190199357505,-6.584422161540585,0,383.37318627582863,2.0994296901626512,0,28,386.49216910498217,41,384.3914527016459,0.6829268292682927,0.9961437548672158,0.003856245132784196,-5.554197632857876,1,361.5581324053928,0.830115563236177,0,33,363.39341180818155,25,362.56196172966156,1.32,0.9997289297164645,0.0002710702835354031,-8.212861314840818
72,0,385.25782220368274,2.4998802966438234,1,35,388.77787311922293,62,386.2762241354212,0.5645161290322581,0.32486737131374455,0.6751326286862555,0.7314921477404401,1,412.6592707335949,1.1661436061840504,1,17,414.846068513114,82,413.6775513816392,0.2073170731707317,0.006518070059450154,0.9934819299405498,5.026637544574006,1,388.9932294480968,2.316482015303336,1,15,392.31289367808495,56,389.995111122611,0.26785714285714285,0.020090993199620377,0.9799090068003796,3.887188102033013,1,365.89451363275293,0.9491995277348906,0,50,367.84696056030225,62,366.89643086271826,0.8064516129032258,0.9867946495028185,0.013205350497181493,-4.313839874412471
73,0,391.27886985754594,1.6661850876407698,0,86,393.9650363298133,59,392.2968585556373,1.4576271186440677,0.9974293609386816,0.0025706390613183363,-5.961026800167438,0,417.345425354084,1.2494141248753294,0,80,419.6150247150799,60,418.36383163149003,1.3333333333333333,0.9875715720351942,0.01242842796480585,-4.3752625456881455,0,394.81412113190163,1.8335541723063216,0,78,397.66687841922976,34,395.83198420063127,2.2941176470588234,0.9999999999999969,3.1184740910324493e-15,-33.401432586111724,1,370.3480540885357,1.5658744117245078,0,52,372.9332418371923,68,371.3660518730758,0.7647058823529411,0.9645044434814218,0.03549555651857812,-3.302206919209811
74,1,396.46568264928646,1.5331645633559674,0,75,399.0180479573319,70,397.483079546364,1.0714285714285714,0.9772608544846301,0.022739145515369937,-3.760665700448813,1,422.11569947889075,2.1160301447380334,1,19,425.25162053934764,37,423.13392047269735,0.5135135135135135,0.3135781375656045,0.6864218624343955,0.7834438268817877,0,400.16754054115154,2.249720692052506,0,53,403.420393275097,57,401.1693360924255,0.9298245614035088,0.9999999098011486,9.019885141320586e-08,-16.22124905353826,0,375.4346174389357,1.3329821242950857,0,60,377.7868342830334,40,376.4525389766786,1.5,0.9999999447994601,5.520053987278749e-08,-16.712293048206526
75,1,401.5185003018705,2.1504735199268907,0,56,404.68885960173793,46,402.53659487632103,1.2173913043478262,0.9570434733141356,0.04295652668586435,-3.103660220106261,0,427.7524213276338,1.2161515863845125,0,86,429.97203759721015,59,428.754094014992,1.4576271186440677,0.99436528997514,0.0056347100248600335,-5.173158947576177,1,405.92204936989583,2.4164703213609755,0,46,409.35749248589855,40,406.93982078460976,1.15,0.9999997790561606,2.209438394194268e-07,-15.32535706705291,0,380.2875007506227,0.8651945912279189,0,80,382.1558850625297,60,381.2894132399233,1.3333333333333333,0.9999999979879891,2.012010930861602e-09,-20.024131149877867
76,0,407.1892917982768,1.5653952030697837,0,60,409.7585348933935,61,408.19112527545076,0.9836065573770492,0.9251694656963122,0.0748305343036878,-2.5147509125899257,0,432.4726246575592,1.6166266864165664,1,54,435.1092410250567,80,433.4903455043677,0.675,0.38289308371138375,0.6171069162886162,0.477286497582549,1,411.8588518900797,0.9992312117246911,0,53,413.8775378704304,40,412.87697569897864,1.325,0.9999999947251028,5.27489719935245e-09,-19.0603066407737,1,384.65697345510125,1.2491585204843432,1,28,386.9094232270727,82,385.65891083318274,0.34146341463414637,1.4721898879965778e-06,0.999998527810112,13.428758073788726
77,1,412.25899553427007,0.9987954596290365,0,41,414.26143384946045,7,413.2607104931958,5.857142857142857,0.9828922421777642,0.017107757822235847,-4.050967458307784,1,437.6091023586923,2.0993621348170564,0,74,440.71262803918216,60,438.6110180084361,1.2333333333333334,0.9750692999436702,0.024930700056329847,-3.6664085673164464,0,416.378536584205,1.2998076843796298,0,59,418.6977773088729,65,417.39651698595844,0.9076923076923077,0.9999999860335431,1.3966456918988084e-08,-18.08660730256629,0,389.41028129903134,1.4488254052121192,0,12,391.8623260547174,3,390.4121993192239,4.0,0.9937638431906756,0.00623615680932447,-5.071135499428356
78,0,416.76241597067565,1.9491849105106667,0,77,419.7314842909109,72,417.7806330138119,1.0694444444444444,0.9795337950322603,0.020466204967739637,-3.8683017514683877,0,443.2126347552985,1.3659380956087261,0,50,445.58223150880076,7,444.2145895160502,7.142857142857143,0.9961285264698978,0.003871473530102244,-5.550241100195321,0,421.2009093508823,1.7661038630176336,1,7,423.9842046793783,54,422.2168476835359,0.12962962962962962,0.0004007807706730704,0.9995992192293269,7.821695125602417,1,394.3634851630777,1.2663456402951851,0,56,396.6495056209387,46,395.3816417619819,1.2173913043478262,0.999996927093149,3.072906850965904e-06,-12.692883514447763
79,1,422.2327504607383,1.0990836169803515,0,54,424.3517265737755,31,423.2508877016371,1.7419354838709677,0.9810425786736878,0.01895742132631215,-3.9464203803795312,0,448.0831061734352,2.7311891802819446,0,53,451.8372211266542,57,449.10380380332936,0.9298245614035088,0.8103900970100941,0.1896099029899059,-1.4525469135645026,0,426.48499835655093,1.499717926606536,0,58,429.00436147104483,58,427.50329401681665,1.0,0.9999999926020788,7.397921182114033e-09,-18.722066790140097,1,399.1504379643593,1.065420091850683,1,17,401.23555657744873,82,400.1688632046571,0.2073170731707317,5.931343194376382e-09,0.9999999940686568,18.943015135328032
80,1,433.87454884068575,1.3658669845899567,0,88,436.2600523219444,96,434.8920990212355,0.9166666666666666,0.9709682530997011,0.02903174690029885,-3.5099038207832,0,461.35829722485505,2.5338195741642267,1,45,464.9114005063893,92,462.37547170266043,0.4891304347826087,0.06855654873509853,0.9314434512649015,2.609076547336097,0,438.51130545465276,1.7328812257619575,0,95,441.2624456001213,16,439.52826936508063,5.9375,1.0,1.774673526283403e-20,-45.47808538272494,1,410.742151722312,1.148813474457711,0,94,412.9097534978064,46,411.75967345852405,2.0434782608695654,0.9999999999999836,1.638950541493124e-14,-31.742135178636396
81,0,438.760268815211,1.9994587666587904,1,15,441.77967183094006,42,439.7784530684585,0.35714285714285715,0.14089785176538727,0.8591021482346127,1.8078526579361804,0,467.4126220343169,2.033368809847161,0,59,470.4661033890443,65,468.43099828704726,0.9076923076923077,0.8098539564865737,0.1901460435134264,-1.4490615038055341,1,443.76376075751614,2.0826245942153037,0,98,446.86573068855796,73,444.78188693674747,1.3424657534246576,1.0,4.876177483369264e-17,-37.559584970563755,1,415.41118598822504,0.9321479139616713,0,41,417.36300674441736,7,416.42953656206373,5.857142857142857,0.999999988326045,1.1673955032747041e-08,-18.26590553041304
82,1,444.2803031380754,1.299406302627176,1,43,446.5998089486966,93,445.29856166266836,0.46236559139784944,0.12106129621088679,0.8789387037891132,1.9824181636417906,0,472.9662041295087,1.382859734352678,0,62,475.3683590281289,17,473.984231938608,3.6470588235294117,0.9977114023805004,0.0022885976194995925,-6.077524821775383,0,449.36693404382095,1.5324167133076116,0,45,451.9027731686365,92,450.3689073724672,0.4891304347826087,0.9977790940236464,0.0022209059763535818,-6.107616693044892,1,419.8641216059914,0.9321649015182629,0,69,421.81602453486994,61,420.88254131539725,1.1311475409836065,0.9999993013881879,6.986118121071751e-07,-14.174169897849234
83,0,449.1038101243321,1.2995240307645872,0,14,451.41997885645833,7,450.11839932436123,2.0,0.6511234102968082,0.3488765897031918,-0.6239809460891642,1,477.8699226786848,2.1480055750580505,1,43,481.02257377363276,97,478.8726675611688,0.44329896907216493,0.035895999292631986,0.964104000707368,3.2905733243749955,1,454.4037541046273,1.3987091783201322,0,32,456.8055210534949,16,455.40566106303595,2.0,0.9999929574924263,7.042507573689339e-06,-11.863539219237843,0,424.31687668093946,1.5990488516399637,1,12,426.9191689817235,23,425.3188259109156,0.5217391304347826,0.16206428231130543,0.8379357176886946,1.6429483274206307
84,1,453.92020601639524,1.5163910721894354,0,55,456.4559100305196,95,454.9381445416948,0.5789473684210527,0.35308002975373254,0.6469199702462675,0.605527848837543,0,483.5230091307312,4.301713457680307,1,28,488.84514091035817,41,484.5411499271868,0.6829268292682927,0.48092612216804176,0.5190738778319582,0.07633255338957354,0,459.30765517195687,1.49935131019447,0,87,461.8267389785033,76,460.32657897891477,1.144736842105263,0.9999999999999715,2.8485866722226424e-14,-31.18936833512063,1,429.42031189252157,0.9491963672917336,0,42,431.37269244983327,39,430.4221726289252,1.0769230769230769,0.9996728182526465,0.00032718174735349274,-8.024667503880675
85,1,458.9573915085057,1.5149530509952456,1,3,461.4934803118231,18,459.9765993641922,0.16666666666666666,0.1713087516270555,0.8286912483729445,1.5763801536294604,1,491.3452053052606,1.39937683113385,0,14,493.747258278192,8,492.34683374583255,1.75,0.7699581309806323,0.23004186901936777,-1.2080748064487978,0,464.32879724528175,1.1657797552179545,0,45,466.5125222419156,60,465.34537083562464,0.75,0.9999893689939079,1.0631006092078255e-05,-11.451725092546901,0,433.8734418802196,0.8818543046945706,0,78,435.7583049678942,34,434.8751919994829,2.2941176470588234,0.999999999999112,8.879615681811106e-13,-27.74984793192952
86,0,463.99348307726905,1.949781057308428,0,12,466.9635394444922,3,465.0116744415136,4.0,0.6598351542108074,0.34016484578919265,-0.6625596968069507,1,496.2486370402621,1.3986981166526675,1,26,498.66834488499444,84,497.2671472186921,0.30952380952380953,0.015651065817989362,0.9843489341820106,4.141441424049142,1,469.01394604099914,1.0322160223731771,0,54,471.0652652279241,31,470.03178619616665,1.7419354838709677,0.9999999993117723,6.88227713632898e-10,-21.096901352950898,1,438.25974891509395,0.8651819492224604,0,72,440.12781401805114,51,439.2614034297876,1.411764705882353,0.999999994590451,5.409549031062472e-09,-19.03510010055178
87,1,469.4638120364398,1.0988370990380645,0,14,471.56571243691724,8,470.4656656617299,1.75,0.6343382364210958,0.36566176357890423,-0.5508735452204839,0,501.1683148603188,1.999630618141964,0,56,504.1716298154788,59,502.17020325094927,0.9491525423728814,0.836017393705671,0.16398260629432898,-1.628889055717685,0,473.5664666078519,0.9820350055815652,0,50,475.5516131122131,7,474.5683044306934,7.142857142857143,0.9999999998943327,1.0566728770375461e-10,-22.970725753308383,1,442.62901263241656,0.9156584715237841,1,15,444.56404369999655,56,443.6471913547721,0.26785714285714285,1.3439508519175192e-05,0.9999865604914808,11.217298352452836
88,0,474.0669584586285,1.349020407302305,1,45,476.4195407340303,92,475.0686860594433,0.4891304347826087,0.1603723918380442,0.8396276081619558,1.6554599100161758,0,506.672728084377,4.26726455159951,0,68,511.95992147771176,63,507.6906480418984,1.0793650793650793,0.9364594132114067,0.06354058678859327,-2.690427318395748,1,478.0530479729641,1.0659798929700628,0,53,480.1384055977687,55,479.07113306596875,0.9636363636363636,0.9999999354132072,6.458679278619504e-08,-16.555255828507132,0,447.0655800914392,2.316708780126646,0,28,450.40160062827636,41,448.08348543173634,0.6829268292682927,0.5830031134414364,0.41699688655856365,-0.33511377123154446
89,0,478.9201147572603,1.216267339186743,1,6,481.1564551353222,26,479.9383535288507,0.23076923076923078,0.1442459623326301,0.8557540376673699,1.7804630814435016,0,514.4617909054505,1.232829867862165,0,95,516.7132439389825,16,515.4785841496196,5.9375,0.9999574702470261,4.252975297394311e-05,-10.065264126336059,1,482.63937033631373,2.716851634089835,1,10,486.37558666523546,44,483.6575249598827,0.22727272727272727,0.010446688771438617,0.9895533112285614,4.550968576306047,1,452.90238008322194,0.9652559836395085,0,74,454.8710312192561,60,453.9045244732406,1.2333333333333334,0.999999959272187,4.0727812989541104e-08,-17.01635457132177
90,0,483.65675340627786,1.0657298194710165,0,68,485.7426992766559,63,484.6751845724648,1.0793650793650793,0.9671988178728134,0.032801182127186655,-3.383939521880305,1,519.2135651233839,1.3157934242626652,1,28,521.5501766712405,82,520.2325505599147,0.34146341463414637,0.02349776067009568,0.9765022393299043,3.7270719175592464,1,488.87662607012317,1.416626765509136,0,69,491.31262148113456,61,489.89474869391415,1.1311475409836065,0.9999999999655069,3.449305554472844e-11,-24.090263100676598,1,457.3725292898016,1.165296990890056,0,97,459.5577033694135,61,458.39112045557704,1.5901639344262295,0.9999999999994398,5.602122877332154e-13,-28.2104605977777
91,1,488.2433029295644,1.0823460763785988,0,98,490.3454020455247,73,489.2614054051228,1.3424657534246576,0.9984386288413497,0.0015613711586502767,-6.460628304547522,0,524.0506511392305,1.8490014444105327,1,51,526.9035036361311,7,525.0525774556445,7.285714285714286,0.9965584417275297,0.0034415582724702308,-5.668383429923938,0,493.8137845401652,1.21545706957113,0,77,496.04879356327,72,494.8319798549637,1.0694444444444444,0.9999999999969679,3.0321789274183363e-12,-26.52173963688582,0,462.06012627715245,1.8640524704242125,1,35,464.928175577661,62,463.06279886350967,0.5645161290322581,0.038955469032390444,0.9610445309676096,3.2056015719777795
92,0,492.84653745021205,1.6657066689804196,1,24,495.53259133023676,90,493.86452496319544,0.26666666666666666,0.015147161657834585,0.9848528383421654,4.174679062226631,1,529.4041906468337,2.249791407957673,1,15,532.6738358348375,42,530.422474060324,0.35714285714285715,0.15430530638672535,0.8456946936132747,1.7012252633779201,1,498.5501375601161,1.115785997128114,0,52,500.6852092399495,68,499.5680049745133,0.7647058823529411,0.9999990345278029,9.654721971024628e-07,-13.850647566392187,1,467.4292663404485,1.015579617349431,0,98,469.4645531703718,73,468.44779864221346,1.3424657534246576,0.9999999999809377,1.9062341085130977e-11,-24.683306398094324
93,0,498.03271932993084,1.1161917245481163,1,7,500.152901168447,54,499.0345942884451,0.12962962962962962,0.02411419560843131,0.9758858043915687,3.7005448793880853,1,535.1742466981523,2.1833228247705847,0,98,538.3775568334386,73,536.192374062608,1.3424657534246576,0.9952472744748742,0.004752725525125827,-5.344272975090907,1,503.1867298289435,1.0658993006218225,0,58,505.2718243432464,6,504.20463398401625,9.666666666666666,0.999999999998748,1.2520449525129763e-12,-27.406242939330863,1,471.9657020071754,1.6161277247592807,0,37,474.6012453896692,54,472.9836622609291,0.6851851851851852,0.6183673381975165,0.38163266180248345,-0.4826241516138501
94,1,502.6533550933236,1.2657652959460393,1,17,504.9385996517958,82,503.67103564401623,0.2073170731707317,0.011225283357188531,0.9887747166428115,4.478297839926453,0,540.8784216215136,2.282506392104551,1,6,544.1644721040502,26,541.880179247004,0.23076923076923078,0.20753843500737545,0.7924615649926245,1.3398274546741333,1,507.77296962449327,1.09887423471082,0,88,509.8911070234608,96,508.7908856314607,0.9166666666666666,0.9999999999995285,4.714964555533636e-13,-28.382864810249128,1,477.10229032544885,1.0323262443998829,1,4,479.1547172628343,22,478.12102726870216,0.18181818181818182,0.004880510924291759,0.9951194890757082,5.317612907486334
95,1,507.43939135363325,1.1660906679462641,1,15,509.6255349123385,56,508.45739427383523,0.26785714285714285,0.05565307508257522,0.9443469249174248,2.831356270097705,1,546.6653989165789,1.9818935737712309,0,69,549.6515634926036,61,547.6678806885611,1.1311475409836065,0.9519675669751796,0.048032433024820444,-2.986654495157032,1,512.3923182799481,0.7990902540041134,0,87,514.2107744138921,89,513.4104567060713,0.9775280898876404,0.9999999999997502,2.497479219784636e-13,-29.01832429782294,0,481.65523716283496,1.299249463598244,0,87,483.9576826682314,76,482.65709829423577,1.144736842105263,0.9999999870469788,1.2953021230819615e-08,-18.16193676338079
96,0,512.1259347138694,1.4666307951556519,0,80,514.6116568217985,60,513.1437985728262,1.3333333333333333,0.9940969574550109,0.005903042544989052,-5.126366841027953,1,552.1525637865998,1.7329610279994085,0,46,554.9049230895471,36,553.1703419171972,1.2777777777777777,0.9238216336282216,0.07617836637177844,-2.495441499307188,0,516.7121464600787,1.1655340273864567,0,78,518.8806754433317,65,517.7138234931044,1.2,0.9999999999994476,5.524974515576824e-13,-28.224327574094144,0,486.4584277528338,1.465989216347225,0,9,488.92753044341225,7,487.46019960043486,1.2857142857142858,0.9024220214043953,0.09757797859560471,-2.2244304447805083
97,1,517.1126515849028,1.649556188727729,0,37,519.7820173068903,54,518.1307631469099,0.6851851851851852,0.5267788294991951,0.47322117050080487,-0.10721791196593765,1,557.4056010139175,1.4821187584893778,1,55,559.8919643055415,95,558.4077110335929,0.5789473684210527,0.15514818920053186,0.8448518107994681,1.6947805205989317,1,521.3815054660663,0.9494705395773053,0,66,523.3505773417419,59,522.3998110028915,1.11864406779661,0.9999999998775817,1.2241830561970472e-10,-22.823577201193704,1,491.42862278642133,1.032930292421952,0,45,493.48083402076736,40,492.4465597316157,1.125,0.9998982460954985,0.00010175390450156531,-9.192851601816274
98,0,522.2824230343103,1.649722904432565,0,40,524.9525069767842,15,523.3009462496266,2.6666666666666665,0.9657488220492517,0.03425117795074833,-3.339182824979873,0,562.3922542801592,1.4627220636466518,1,24,564.8619914383162,90,563.3974370826036,0.26666666666666666,0.00730415738632606,0.9926958426136739,4.911980624604381,0,525.851333093131,2.0161943319253623,1,7,528.8870323664742,54,526.8696105806157,0.12962962962962962,0.0004007807706730704,0.9995992192293269,7.821695125602417,0,495.98159648803994,2.216429314110428,1,45,499.2011025355896,92,496.9833857184276,0.4891304347826087,0.0002576202384472204,0.9997423797615528,8.263766347991234
99,1,527.4527017418295,1.1665576299419627,0,62,529.6393418919761,43,528.470812908723,1.441860465116279,0.9834476281631658,0.016552371836834244,-4.084534980983106,0,567.362416128628,1.4656111432705075,0,78,569.83124385681,65,568.3643298031529,1.2,0.9757257578940082,0.024274242105991845,-3.693765768649246,1,531.3886386837112,1.0158194192918018,0,55,533.4238101558294,95,532.4066605669213,0.5789473684210527,0.9999823056729118,1.769432708820833e-05,-10.942248778764132,1,501.7022715205094,1.1994448605692014,1,43,503.92136275430676,97,502.7204091565218,0.44329896907216493,1.764784028468469e-05,0.9999823521597153,10.944879497549934
