,self_acceptUp,self_cue_times,self_decision_times,self_decisions,self_punishment_values,self_response_times,self_reward_values,self_trial_times,self_punishment_reward_ratio,self_prob_reject,self_prob_accept,self_SV,harm_other_acceptUp,harm_other_cue_times,harm_other_decision_times,harm_other_decisions,harm_other_punishment_values,harm_other_response_times,harm_other_reward_values,harm_other_trial_times,harm_other_punishment_reward_ratio,harm_other_prob_reject,harm_other_prob_accept,harm_other_SV,harm_self_acceptUp,harm_self_cue_times,harm_self_decision_times,harm_self_decisions,harm_self_punishment_values,harm_self_response_times,harm_self_reward_values,harm_self_trial_times,harm_self_punishment_reward_ratio,harm_self_prob_reject,harm_self_prob_accept,harm_self_SV,other_acceptUp,other_cue_times,other_decision_times,other_decisions,other_punishment_values,other_response_times,other_reward_values,other_trial_times,other_punishment_reward_ratio,other_prob_reject,other_prob_accept,other_SV
0,1,0.007774006109684706,0.8264312259852886,1,43,1.8686320153065026,97,1.0406430643051863,0.44329896907216493,1.192124247728632e-05,0.9999880787575227,11.337176745773919,1,0.009998198598623276,1.0230960440821946,1,10,2.070694153662771,44,1.0444419691339135,0.22727272727272727,0.0012969679984968785,0.9987030320015031,6.646428237642467,1,0.009183978196233511,2.0908047230914235,1,3,3.1353920744732022,18,1.0430201450362802,0.16666666666666666,0.4027616328608019,0.5972383671391981,0.3939714034262333,0,0.009797112550586462,2.402845859993249,0,56,3.452130088582635,59,1.0479607749730349,0.9491525423728814,0.3969564462208953,0.6030435537791047,0.418162855191471
1,1,4.370686726178974,0.8957908642478287,1,88,6.288717932999134,96,5.391169047914445,0.9166666666666666,7.668731610877e-05,0.9999233126838912,9.475697543168938,1,4.568912429269403,0.8954147663898766,1,37,6.473514729645103,54,5.574994785245508,0.6851851851851852,0.034585653611780676,0.9654143463882193,3.3291184230987563,0,5.63805122859776,2.6098644309677184,0,95,9.275136137846857,16,6.662075270432979,5.9375,0.9984270938256108,0.0015729061743891876,-6.453256159754325,1,5.955008106306195,0.8787866574712098,1,24,7.8574976217933,69,6.975674526765943,0.34782608695652173,0.0007229762181365507,0.9992770237818634,7.231410991965472
2,1,8.788763760123402,0.9288606126792729,0,6,10.724737837910652,8,9.794208092615008,0.75,0.9954861597938643,0.004513840206135604,-5.396082942485756,1,8.973881741054356,0.7675462299957871,1,26,10.763749300967902,84,9.994745296426117,0.30952380952380953,8.776355393314006e-06,0.9999912236446067,11.64344056336975,0,11.77554739639163,1.9461508439853787,1,28,14.745258875656873,41,12.796314557082951,0.6829268292682927,0.11374303234986904,0.886256967650131,2.053065137874116,0,10.357979595661163,1.4502231306396425,0,78,12.827438631094992,65,11.37444691453129,1.2,0.9183539011601585,0.08164609883984153,-2.4201887903595845
3,0,13.22646267293021,0.995026579592377,0,62,15.244547370821238,16,14.247780153527856,3.875,0.9970789624109732,0.002921037589026843,-5.832891074966523,0,13.260527975391597,2.5798465269617736,1,58,16.86373089114204,58,14.280839630868286,1.0,0.5057439657927403,0.4942560342072598,-0.02297687397892125,0,17.245589936617762,1.612455239519477,0,62,19.88200126728043,16,18.266585047356784,3.875,0.9837684792495069,0.01623152075049303,-4.104435506947084,1,15.328540850896388,1.245934429578483,1,54,17.597623077221215,78,16.3486364078708,0.6923076923076923,0.02993816308187891,0.9700618369181211,3.4782257950670132
4,1,17.74667595839128,1.9961924040690064,1,53,20.764342287089676,55,18.76685092318803,0.9636363636363636,0.0810087298299228,0.9189912701700772,2.428719698496589,1,19.36407340876758,2.2667023804970086,0,3,22.651096135843545,18,20.38117598555982,0.16666666666666666,0.061611638686714376,0.9383883613132856,2.723313102157772,1,22.382441365160048,2.4907172564417124,1,97,25.901516480371356,61,23.409081894438714,1.5901639344262295,0.46707332929957046,0.5329266707004295,0.1318975688808765,1,20.097828113473952,0.7454927512444556,1,42,21.866817105561495,67,21.118488607928157,0.6268656716417911,0.01948108551049499,0.980518914489505,3.918637915087758
5,1,23.266675516031682,0.828729294706136,0,54,25.117764461785555,31,24.28734983736649,1.7419354838709677,0.9233045403820195,0.07669545961798048,-2.488116616340748,1,25.15153346816078,1.2287208405323327,0,98,27.40420605428517,73,26.17233420908451,1.3424657534246576,0.9926060259959198,0.00739397400408013,-4.89966848936019,1,28.403182451613247,1.4791617281734943,1,52,30.906033605337143,68,29.423884032294154,0.7647058823529411,0.012354104975718205,0.9876458950242818,4.381335833115678,0,24.36732673412189,2.079415910411626,0,71,27.470707427244633,69,25.388528066687286,1.0289855072463767,0.6614922455077756,0.3385077544922244,-0.6699512604114403
6,1,27.619491667486727,1.2958238911814988,0,46,29.937711555045098,40,28.64015769260004,1.15,0.5898485463699931,0.41015145363000693,-0.36333931229371585,0,29.90450037457049,1.379429421853274,0,9,32.30743393814191,7,30.924970844760537,1.2857142857142858,0.671669548563663,0.32833045143633705,-0.7157459012547718,1,33.40535923698917,1.896091505419463,0,41,36.309964302461594,7,34.41065818723291,5.857142857142857,0.9812057786519258,0.018794221348074135,-3.955232754255059,1,29.97107127821073,1.4118907763622701,0,41,32.40671785036102,7,30.992320413235575,5.857142857142857,0.9891730558781721,0.010826944121827995,-4.51483144366774
7,1,32.43966671079397,0.8120747171342373,0,45,34.274147300980985,40,33.46003407007083,1.125,0.5809054888586127,0.41909451114138735,-0.32649161577135133,0,34.80761803640053,1.2790259066969156,0,71,37.110376429744065,64,35.8286016904749,1.109375,0.7986719922872798,0.20132800771272022,-1.3780148815254911,0,38.810164203401655,2.7471346240490675,0,38,42.58008830389008,43,39.83073936449364,0.8837209302325582,0.16242402903322772,0.8375759709667723,1.6403015923777482,1,34.907951230183244,2.062971900217235,1,46,37.994460062123835,40,35.9284363174811,1.15,0.6512483508637354,0.34875164913626455,-0.6245309989708622
8,1,36.775938901584595,1.2792503009550273,0,19,39.07699063234031,37,37.7960980636999,0.5135135135135135,0.49461272935507716,0.5053872706449228,0.0215499165207608,0,39.61141425464302,0.9957218864001334,0,80,41.63025746913627,60,40.63163109542802,1.3333333333333333,0.9816985855111368,0.018301414488863296,-3.982305970507184,0,45.08103921543807,1.9296254510991275,1,71,48.03431498026475,69,46.10170445032418,1.0289855072463767,0.0399834581717714,0.9600165418282286,3.1784846925098864,1,40.50062340591103,1.062068791128695,1,43,42.58092306740582,93,41.51575344381854,0.46236559139784944,0.000565137242291347,0.9994348627577087,7.47787665261201
9,1,41.57870006049052,1.8636317304335535,0,15,44.4639704558067,42,42.59870712412521,0.35714285714285715,0.23404589967973477,0.7659541003202652,1.1856049980925052,0,44.13080146815628,0.9623317434452474,0,68,46.116962883621454,63,45.15123638231307,1.0793650793650793,0.7284395815052667,0.27156041849473334,-0.9867200362105261,1,50.53470964636654,1.3124065678566694,1,87,52.870268356986344,89,51.55530772078782,0.9775280898876404,0.006498491904315062,0.9935015080956849,5.029665444691908,0,45.08123200479895,0.8454806627705693,0,53,46.950332956854254,15,46.101854178123176,3.533333333333333,0.9954375504852888,0.004562449514711216,-5.3853227361500675
10,0,46.96578734042123,1.0122385881841183,1,71,49.00029669050127,69,47.98639845196158,1.0289855072463767,0.009833081313424308,0.9901669186865757,4.612121188444428,1,48.61710866075009,0.9289629338309169,1,28,50.56945721851662,82,49.63759058760479,0.34146341463414637,1.9645147505964466e-05,0.999980354852494,10.83766055106613,1,55.37117067584768,1.4470183975063264,0,82,57.84035435365513,40,56.39071077760309,2.05,0.8743477172562764,0.1256522827437237,-1.939959711063373,0,49.450820066966116,1.5461142612621188,0,45,52.020481136627495,42,50.4713268824853,1.0714285714285714,0.5423228486996186,0.4576771513003815,-0.16969746018704196
11,0,51.50011614803225,0.8289880598895252,1,45,53.33662497997284,60,52.5059721339494,0.75,0.023199185957439306,0.9768008140425607,3.7401655661577973,0,53.069842007476836,0.8951465198770165,0,78,54.98968733334914,34,54.090980920474976,2.2941176470588234,0.999863377485284,0.00013662251471603543,-8.898152170335118,1,60.341186352074146,0.9950992707163095,1,26,62.360372874420136,84,61.362312622834,0.30952380952380953,0.00017972119063547343,0.9998202788093645,8.623924111494844,1,54.52091491315514,1.2792653134092689,0,16,56.823539776261896,10,55.54140237066895,1.6,0.47050927145346266,0.5294907285465373,0.11809999069635896
12,1,55.83849954325706,1.01601615967229,1,74,57.872454623226076,60,56.85539866378531,1.2333333333333334,0.06467118712709918,0.9353288128729008,2.671582367009217,0,57.48959883954376,0.9235213664360344,1,24,59.44212359422818,90,58.51592885144055,0.26666666666666666,1.7313701301535644e-06,0.9999982686298698,13.266595748788081,0,64.86086788540706,1.8962258263491094,1,86,67.78035173052922,59,65.88157065119594,1.4576271186440677,0.3507287385228637,0.6492712614771363,0.6158374977956461,1,59.32406836748123,1.0121690575033426,1,52,61.35995608475059,68,60.344814194832,0.7647058823529411,0.08464416272175324,0.9153558372782468,2.3808567344806164
13,1,60.37469896348193,1.111857512500137,0,42,62.50935899000615,39,61.3958876542747,1.0769230769230769,0.6033112788976331,0.39668872110236686,-0.4192813853007146,0,61.94255342055112,1.0457685831934214,0,28,64.01192491035908,18,62.96314240852371,1.5555555555555556,0.9038142129438573,0.09618578705614264,-2.2403422195583653,1,70.28123627183959,2.4466462498530746,0,62,73.75129698449746,43,71.30179997626692,1.441860465116279,0.5169763745066593,0.48302362549334066,-0.0679316096638814,1,63.86043726885691,1.4787599514238536,1,53,66.36264328844845,55,64.88140195980668,0.9636363636363636,0.41360887617360564,0.5863911238263944,0.3490662300043334
14,0,65.011101603508,0.7624033289030194,1,87,66.7955785584636,85,66.03170520858839,1.0235294117647058,0.0006915496710725444,0.9993084503289275,7.27588378962982,0,66.51247957535088,0.9785778285004199,0,53,68.51440786710009,15,67.5332475262694,3.533333333333333,0.999597345489096,0.00040265451090408007,-7.817028921147415,1,76.25007190136239,2.3298540329560637,1,66,79.58839248213917,59,77.25575564056635,1.11864406779661,0.1151313906748821,0.8848686093251179,2.0393651661636705,1,68.86367755755782,1.5627850363962352,0,97,71.4503495497629,61,69.8843483235687,1.5901639344262295,0.9979498609308068,0.002050139069193154,-6.187795406020938
15,0,69.29752067755908,1.0289607215672731,0,60,71.34864549478516,40,70.31793109839782,1.5,0.7066578782482554,0.29334212175174457,-0.8792070636068212,0,71.0152655444108,1.2785889692604542,1,37,73.31800734531134,52,72.0364617407322,0.7115384615384616,0.05115278571487081,0.9488472142851292,2.920430836516813,1,82.08903840649873,2.479761825874448,1,53,85.59251573123038,40,83.10972023382783,1.325,0.46900095748668225,0.5309990425133178,0.12415540807026258,0,73.95045937644318,1.1122687705792487,0,12,76.08671465842053,3,74.97126880846918,4.0,0.5530401211190717,0.44695987888092825,-0.2129617164762584
16,0,73.8506966503337,0.9788148649968207,0,50,75.8515839567408,7,74.87107823137194,7.142857142857143,0.9992692546089054,0.0007307453910946392,-7.220714448566261,0,75.81847588717937,2.3461431795731187,0,71,79.18826780095696,69,76.83958635572344,1.0289855072463767,0.5881434847480688,0.41185651525193123,-0.35629591507063896,1,88.09301034733653,1.9458043756894767,1,56,91.06128657096997,46,89.11390708805993,1.2173913043478262,0.3083963715834829,0.6916036284165171,0.8076271238779922,1,78.58694023825228,1.3958070618100464,0,14,81.00614438019693,8,79.60758216446266,1.75,0.4581956397639064,0.5418043602360936,0.16760872334084023
17,0,78.35326375532895,1.879612729884684,1,28,81.25527840713039,41,79.37396533600986,0.6829268292682927,0.3767767218511884,0.6232232781488116,0.5032520842053066,1,81.68809752957895,1.3457481190562248,1,25,84.05831018276513,37,82.70981876226142,0.6756756756756757,0.09640453762317869,0.9035954623768213,2.2378284915760065,1,93.56340844230726,1.0985253960825503,1,40,95.68251374037936,93,94.58102894388139,0.43010752688172044,0.00012677675822381218,0.9998732232417762,8.972956042731498,0,83.50691158836707,1.929516018833965,1,58,86.45963821886107,58,84.52754166303203,1.0,0.5153514359877938,0.4846485640122063,-0.061425049914590725
18,1,83.75688037881628,1.0956853036768734,0,3,85.87491229642183,18,84.77758037904277,0.16666666666666666,0.9627524899955147,0.03724751000448531,-3.2522112619540904,0,86.55899640358984,1.8794234953820705,1,60,89.46214725030586,70,87.57973907049745,0.8571428571428571,0.11587809516314618,0.8841219048368538,2.0320562197754324,0,98.1831008004956,1.929416068829596,1,37,101.13626989955083,52,99.20397502277046,0.7115384615384616,0.044917112849946816,0.9550828871500532,3.0569792748905513,1,88.96053619217128,1.128973126411438,1,3,91.11302096629515,18,89.9811903652735,0.16666666666666666,0.030755115514554676,0.9692448844854453,3.450460960116551
19,0,88.37672878615558,0.8787755956873298,1,56,90.2778762797825,59,89.39745367504656,0.9491525423728814,0.04182612779733563,0.9581738722026644,3.131508045315324,1,91.96264147153124,1.7293738760054111,0,54,94.71553450170904,31,92.98325732396916,1.7419354838709677,0.9913890675003622,0.008610932499637805,-4.746074441360537,1,103.63666930561885,1.3295360091142356,1,37,105.98970629600808,54,104.65744002209976,0.6851851851851852,0.033699900485849255,0.9663000995141507,3.355979563578196,1,93.61378540890291,2.4799530347809196,0,66,97.11717068497092,59,94.63428787887096,1.11864406779661,0.7795383364121914,0.22046166358780858,-1.2629780495695355
20,0,99.80593665735796,0.7944151046685874,1,60,101.6188319157809,61,100.82272121030837,0.9836065573770492,0.03258476447649272,0.9674152355235073,3.3907829774187808,1,104.24244051193818,1.111655636690557,0,87,106.37366904038936,89,105.25920531153679,0.9775280898876404,0.36497383310791065,0.6350261668920893,0.5538405448504362,0,115.51614969037473,3.029462448786944,1,71,119.56547658564523,64,116.53296110732481,1.109375,0.08084032294158816,0.9191596770584118,2.430983970790777,0,106.6437049433589,1.4783324957825243,0,87,109.142050428316,85,107.66062144609168,1.0235294117647058,0.7438395070432757,0.2561604929567243,-1.0660211215672915
21,1,104.12047971459106,0.962022015824914,0,14,106.10509288683534,8,105.14137131907046,1.75,0.9966346910221016,0.0033653089778984515,-5.690864514664674,0,108.88996332278475,1.94652496650815,1,55,111.86047993600368,60,109.91107892710716,0.9166666666666666,0.27262412494908783,0.7273758750509122,0.9813493512089548,0,122.06598423887044,2.162929786834866,1,60,125.25232809316367,70,123.08646577037871,0.8571428571428571,0.016128219945393596,0.9838717800546064,4.110925054456118,1,111.64217566279694,1.5459803356789052,1,56,114.21192878158763,46,112.66301156394184,1.2173913043478262,0.8093070058579573,0.1906929941420427,-1.4455135588087096
22,1,108.60688369721174,0.8285993197932839,1,54,110.458056000527,78,109.62782903015614,0.6923076923076923,0.0008507613660291291,0.9991492386339709,7.068527761192902,0,114.36099469987676,1.4960015900433064,1,56,116.88041865406558,59,115.3814841331914,0.9491525423728814,0.35928717534239796,0.640712824657602,0.5784593450493392,1,127.7529522893019,2.79680680250749,1,15,131.57344140624627,19,128.77355707995594,0.7894736842105263,0.5770427034996457,0.42295729650035424,-0.3106450532507594,1,116.71242339769378,1.0792843555100262,0,72,118.81456320500001,51,117.73288636142388,1.411764705882353,0.9682789704796809,0.03172102952031909,-3.418540385657021
23,0,112.95976858912036,0.7621473292820156,1,7,114.7444699392654,54,113.98054760182276,0.12962962962962962,0.01944782001939327,0.9805521799806067,3.9203808794289037,0,119.38092867750674,0.9621697687543929,0,86,121.36665236577392,59,120.40165712218732,1.4576271186440677,0.9954038385776611,0.004596161422338863,-5.377927041010029,1,134.07380841765553,1.6793694510124624,1,42,136.77653504814953,39,135.09431839361787,1.0769230769230769,0.3191685407349646,0.6808314592650354,0.7575954813288538,1,121.31545327696949,1.5627273577265441,1,37,123.9017313933,54,122.33619001787156,0.6851851851851852,0.05237487704544763,0.9476251229545524,2.8955319534680855
24,0,117.24589847866446,0.8324772366322577,0,9,119.09615937713534,7,118.26251236535609,1.2857142857142858,0.9966981297367662,0.0033018702632337748,-5.7099588911493075,1,123.86734569724649,1.7797172628343105,1,42,126.66916977195069,67,124.88774426607415,0.6268656716417911,0.00674050791037617,0.9932594920896238,4.992856671538146,1,139.27717109629884,2.513290634844452,0,6,142.8138975277543,8,140.2979161334224,0.75,0.7882750733224835,0.21172492667751655,-1.3145591902671936,0,126.40224418230355,1.1457063215784729,1,6,128.57159686693922,26,127.422828824725,0.23076923076923078,0.016415194187691662,0.9835848058123083,4.092996481919121
25,1,121.59891848172992,1.095474736765027,0,58,123.71702072024345,6,122.6198156173341,9.666666666666666,0.999555816664007,0.00044418333599307886,-7.718828879841635,1,129.17052048491314,1.0290436842478812,1,52,131.22214149823412,68,130.1913966825232,0.7647058823529411,0.0387263701343753,0.9612736298656247,3.2117383361426595,1,145.31454819301143,1.1790146864950657,1,19,147.51711877435446,37,146.3352924399078,0.5135135135135135,0.10952014150357303,0.890479858496427,2.0956520112644377,0,131.0717983483337,1.795317423529923,0,68,133.88961961958557,63,132.0926065952517,1.0793650793650793,0.7360944827498223,0.26390551725017775,-1.0257673339062994
26,1,126.21868037059903,1.2452971963211894,1,98,128.48659005668014,73,127.23962649377063,1.3424657534246576,0.01176763583861995,0.98823236416138,4.430564818726402,0,133.72379917325452,0.8789162379689515,0,12,135.6251904196106,3,134.744537494611,4.0,0.893667206185712,0.10633279381428797,-2.1287597130245897,0,150.01758534135297,1.1456972351297736,0,9,152.18698029778898,7,151.03840860025957,1.2857142857142858,0.8425849426438878,0.1574150573561121,-1.6775884848662197,1,136.39216262567788,1.762448760215193,1,10,139.1787910819985,44,137.41317314375192,0.22727272727272727,0.002470120532136022,0.997529879467864,6.001015154784227
27,1,130.9883437315002,1.4626134219579399,0,46,133.47345744585618,36,132.0091630402021,1.2777777777777777,0.7643486675849342,0.23565133241506572,-1.1766707486795447,0,138.12681372417137,1.1623158622533083,0,50,140.3115034592338,7,139.1474904161878,7.142857142857143,0.9998575163244977,0.00014248367550228797,-8.85614062886924,0,154.68747846921906,1.1323682786896825,1,45,156.8400529222563,60,155.70488958852366,0.75,0.024516919072898546,0.9754830809271015,3.683569362293916,0,141.67907473584637,0.978978815022856,0,62,143.6815197672695,17,142.69979211874306,3.6470588235294117,0.9986571671607746,0.0013428328392253973,-6.611630102127255
28,1,135.97554020630196,0.6953958822414279,1,87,137.69297811063007,89,136.9958862317726,0.9775280898876404,0.000306736339182323,0.9996932636608177,8.089215226015485,1,142.81234967941418,1.650444285478443,0,15,145.48201130190864,19,143.82981926761568,0.7894736842105263,0.36700144801067247,0.6329985519893275,0.5451023410249982,1,159.3407411184162,1.5626763948239386,1,17,161.92647444596514,82,160.36134393373504,0.2073170731707317,0.000127723982934147,0.9998722760170659,8.965511273573625,1,146.18222416052595,1.1956566227599978,1,42,148.40141652990133,39,147.20283369207755,1.0769230769230769,0.5238404986742712,0.4761595013257288,-0.09543436122031966
29,1,140.19466897053644,0.7787410677410662,1,40,141.99539161566645,93,141.2153598847799,0.43010752688172044,2.407317344765847e-05,0.9999759268265523,10.634388398951229,0,147.9833300150931,1.1458351113833487,0,78,150.15154176438227,65,149.00401460798457,1.2,0.9284748779377847,0.07152512206221527,-2.5634945783150407,0,164.42738269083202,1.4461393868550658,0,62,166.89704162674025,17,165.44796140724793,3.6470588235294117,0.9812002936679969,0.018799706332003088,-3.954935362603261,1,150.90179578820243,1.0123116746544838,1,15,152.9374373825267,19,151.92258507199585,0.7894736842105263,0.17129860939588293,0.8287013906041171,1.5764515985572
30,0,144.49757788237184,1.2954248799942434,1,78,146.81560419034213,34,145.5184951662086,2.2941176470588234,0.940613352611114,0.059386647388885945,-2.762462755588129,1,152.65322748897597,0.9121009493246675,0,12,154.5879073473625,9,153.67400057520717,1.3333333333333333,0.711503411886353,0.28849658811364703,-0.9026969532787681,1,169.3972071572207,1.3792575704865158,0,33,171.80016165878624,25,170.4179952563718,1.32,0.6670380982267033,0.33296190177329665,-0.6948190887190474,1,155.43832429405302,1.729220592416823,1,53,158.19124853424728,40,156.45908829430118,1.325,0.8583107132990025,0.14168928670099742,-1.8013296323035668
31,1,149.31737959338352,0.8452874780632555,1,43,151.18539807898924,93,150.3383632474579,0.46236559139784944,2.688687801188916e-05,0.9999731131219881,10.523845309382658,0,157.08963534329087,1.1623723562806845,0,43,159.27420774521306,7,158.110127936583,6.142857142857143,0.9994282958989985,0.0005717041010014799,-7.466317138788722,0,174.30070763314143,2.913650772534311,0,78,178.2383638797328,34,175.3213531151414,2.2941176470588234,0.9277248644685083,0.07227513553149167,-2.552255043452702,0,160.69190473016351,1.29559633648023,0,41,163.011032467708,22,161.71245302725583,1.8636363636363635,0.9140748255673473,0.08592517443265266,-2.3644355813598397
32,0,153.6868835077621,0.8964948626235127,0,62,155.6049155043438,17,154.70674518914893,3.6470588235294117,0.9964226820942113,0.003577317905788797,-5.629558215870066,0,161.7760226544924,0.745397936552763,1,35,163.54337095934898,62,162.79656937113032,0.5645161290322581,0.004674436812922789,0.9953255631870772,5.360961195163789,0,180.73827301571146,1.3792540142312646,1,54,183.1409979867749,80,181.75893825059757,0.675,0.0023925865690453962,0.9976074134309546,6.0329847984047955,0,165.5115128615871,1.1120198825374246,1,22,167.64736439147964,31,166.53266125591472,0.7096774193548387,0.10717097401727904,0.892829025982721,2.119969655070816
33,1,158.10650325380266,1.0956896496936679,1,69,160.2246110229753,61,159.1273924880661,1.1311475409836065,0.04482392283553516,0.9551760771644648,3.059153708717495,0,166.0457614720799,1.0455351020209491,0,40,168.11348081752658,15,167.066123300232,2.6666666666666665,0.9947062898394566,0.005293710160543328,-5.235928153855022,1,185.6415502820164,1.412516948301345,1,45,188.07765749515966,40,186.6622293437831,1.125,0.3332401632106512,0.6667598367893488,0.6935664754174725,1,170.14818493230268,0.8118605939671397,1,43,171.98350186599419,97,171.16874034050852,0.44329896907216493,0.0003185808780823418,0.9996814191219177,8.051315549227704
34,1,162.7264571422711,0.7954458184540272,1,50,164.54420493217185,62,163.74705877248198,0.8064516129032258,0.018658974337302014,0.981341025662698,3.962592801738885,1,170.61515824589878,1.2624776000156999,0,75,172.89985327469185,70,171.6357195796445,1.0714285714285714,0.7203376289434351,0.27966237105656494,-0.9461369732542514,1,190.5782635184005,1.0275503545999527,1,43,192.62933776760474,97,191.59895482705906,0.44329896907216493,8.631442813833434e-05,0.9999136855718617,9.357427469851478,1,174.48430541995913,1.3565218215808272,0,88,176.87060415837914,96,175.51096451701596,0.9166666666666666,0.41512420261863825,0.5848757973813618,0.34282175364906986
35,1,167.04590527387336,0.979022666811943,0,62,169.04729746794328,43,168.06658275565132,1.441860465116279,0.5848957370451338,0.4151042629548663,-0.3429038793621802,1,175.4017357393168,0.9618616211228073,0,72,177.38614545529708,51,176.422631689813,1.411764705882353,0.9856991245828164,0.014300875417183652,-4.23303040717675,1,195.1312289237976,0.7122827563434839,1,42,196.86688189581037,67,196.15180803555995,0.6268656716417911,0.0070784301643721514,0.9929215698356278,4.943599522955882,1,179.37078628130257,1.2288681981153786,0,69,181.6236030650325,61,180.39179600961506,1.1311475409836065,0.8146633218221435,0.18533667817785654,-1.4806008726901192
36,1,171.54899148875847,0.7121184109710157,1,75,173.28337671095505,70,172.56957218097523,1.0714285714285714,0.009303078760227512,0.9906969212397725,4.668063261451428,1,179.8880109321326,1.0408595576882362,0,14,181.95604395633563,8,180.9135768963024,1.75,0.8181901152209639,0.18180988477903615,-1.5041331723070295,0,199.36734806746244,0.9955413439311087,0,12,201.38660096004605,3,200.38810140127316,4.0,0.9233754366126036,0.07662456338739641,-2.4891182124967126,1,184.12396494066343,0.9289048598147929,1,19,186.07659517647699,37,185.14473012601957,0.5135135135135135,0.029757343161117333,0.9702426568388827,3.4844702714222735
37,1,175.78513670666143,1.1287692748010159,0,4,177.93644894100726,22,176.80595601536334,0.18181818181818182,0.9224226142970142,0.07757738570298581,-2.4757275220906267,1,184.45777985360473,1.278905807994306,0,62,186.75913341064006,43,185.4785841498524,1.441860465116279,0.9798129153547466,0.020187084645253435,-3.8823186248180566,1,203.88707700837404,1.2959499158896506,0,12,206.20650578243658,9,204.90752377500758,1.3333333333333333,0.8309137903707736,0.16908620962922635,-1.5921173464337786,1,188.57700840989128,1.1789463413879275,1,6,190.77931114006788,8,189.59785458259284,0.75,0.18056541539872106,0.8194345846012789,1.5125214471496466
38,0,180.43813150469214,0.9788701739162207,0,95,182.43939174851403,16,181.45879871491343,5.9375,0.9991323594806851,0.0008676405193148571,-7.048865060204559,0,189.26099612237886,1.1290252744220197,1,7,191.4122163071297,54,190.28146856743842,0.12962962962962962,9.275049088319776e-05,0.9999072495091168,9.285504809157043,0,208.70693679340184,1.195458697155118,1,7,210.926316421479,54,209.72794810170308,0.12962962962962962,0.004105674686893268,0.9958943253131067,5.491271066130201,0,193.28023321228102,1.6282201404683292,1,14,195.93090347247198,57,194.30118328612298,0.24561403508771928,0.0007518397693258017,0.9992481602306742,7.192235206880111
39,1,184.94112171977758,0.732274807523936,1,14,186.69215756934136,57,185.95822232123464,0.24561403508771928,0.013755770925023447,0.9862442290749766,4.272445581061732,1,193.9139514141716,0.895259112585336,1,14,195.83186212694272,57,194.93486790778115,0.24561403508771928,0.00020166263472065626,0.9997983373652793,8.508712698950756,1,213.42674466734752,1.0790425781160593,0,54,215.5290104993619,31,214.44737908802927,1.7419354838709677,0.784573804315142,0.21542619568485796,-1.2925222744425389,0,198.43352509569377,1.44586047437042,1,45,200.9032594882883,60,199.45434716995806,0.75,0.08235453596786968,0.9176454640321303,2.410777574582438
40,0,196.2240136913024,1.1781668863259256,1,54,198.41689817234874,80,197.23705780832097,0.675,0.000566654779152409,0.9994333452208476,7.475193479385806,0,205.35901781590655,1.4785126433707774,0,51,207.85674937674776,7,206.37642024364322,7.285714285714286,0.9998831715194587,0.00011682848054131034,-9.054686841737885,0,225.05515522742644,1.9271752838976681,1,53,228.00435356982052,57,226.07427261397243,0.9298245614035088,0.06503047907880333,0.9349695209211967,2.66565786191524,1,210.42884085979313,2.3455039714463055,1,12,213.79494646098465,9,211.446602398064,1.3333333333333333,0.3436215484704698,0.6563784515295302,0.6471966284469018
41,0,200.9184483909048,0.7787007712759078,0,51,202.71972491126508,7,201.93930720584467,7.285714285714286,0.9992956722252451,0.000704327774754918,-7.257562145088626,1,210.35835055820644,1.6627638610079885,1,56,213.0436107609421,46,211.37905016355217,1.2173913043478262,0.8887474201346982,0.11125257986530175,-2.0780099677332746,0,230.5049319388345,2.246163169387728,1,55,233.77468497864902,60,231.52575164288282,0.9166666666666666,0.048715981678235765,0.9512840183217642,2.971805528109907,0,216.29572157049552,1.3459290564060211,1,38,218.66515832440928,43,217.31626236112788,0.8837209302325582,0.2404049083462818,0.7595950916537182,1.1504608972995234
42,1,205.22153231455013,0.845084416680038,1,55,207.08922803541645,95,206.2425053017214,0.5789473684210527,2.785866445831342e-05,0.9999721413355417,10.488338669314546,0,215.54515860928223,2.029641411267221,1,15,218.59717468358576,42,216.56575352326035,0.35714285714285715,0.005246104382352845,0.9947538956176472,5.245009586717288,1,236.27522897720337,2.379856087267399,0,46,239.6789072304964,36,237.29600838478655,1.2777777777777777,0.4939029235774163,0.5060970764225837,0.024389514623782242,0,221.16547200269997,1.0786984800361097,0,43,223.268070475664,7,222.1864414345473,6.142857142857143,0.992240592439689,0.00775940756031102,-4.851059624619941
43,1,209.59097934002057,0.8070637658238411,0,12,211.42551168287173,9,210.61674717999995,1.3333333333333333,0.995565236050973,0.004434763949026925,-5.413836262523487,1,221.09896904975176,3.000833973288536,1,46,225.11807616474107,40,222.11554263997823,1.15,0.7889504534904737,0.21104954650952631,-1.3186105987926382,1,242.17912767408416,1.1956653143279254,1,15,244.39871984533966,42,243.20007616793737,0.35714285714285715,0.041972643738197535,0.9580273562618025,3.127858266657155,0,225.7685765484348,1.6960994862020016,1,59,228.48887627292424,65,226.78923783265054,0.9076923076923077,0.3156190132746012,0.6843809867253988,0.7739789286863299
44,0,213.92723375279456,0.7622433290816844,1,77,215.71184937423095,72,214.94791123457253,1.0694444444444444,0.00668598308435242,0.9933140169156476,5.001033586599592,1,227.61995546892285,1.1121008698828518,1,15,229.75461391499266,42,228.64083403674886,0.35714285714285715,0.005246104382352845,0.9947538956176472,5.245009586717288,1,246.89904577005655,1.6666022716090083,1,54,249.5853153532371,78,247.91577382944524,0.6923076923076923,0.0032237388611561224,0.9967762611388439,5.733984509717099,0,230.98871113779023,1.0620040013454854,1,7,233.07381315808743,54,232.00946960691363,0.12962962962962962,0.00035645192383049196,0.9996435480761695,7.938954667751346
45,1,218.213353370782,1.1288636946119368,1,28,220.36484693782404,82,219.23432003706694,0.34146341463414637,0.0001448163552163484,0.9998551836447837,8.83989930715981,1,232.25648847874254,1.0290306475944817,0,16,234.30772983888164,10,233.27695499826223,1.6,0.8164589086524238,0.18354109134757624,-1.49253801146238,0,252.0859194016084,0.9288831315934658,0,51,254.0385844022967,7,253.10655658692122,7.285714285714286,0.9906870850669193,0.00931291493308068,-4.666996588439071,0,235.57513661170378,1.2290815310552716,0,77,237.8277823338285,72,236.59580382192507,1.0694444444444444,0.7770499070581325,0.2229500929418675,-1.2485566308064646
46,1,222.8665761188604,0.9622590527869761,1,10,224.85129240201786,44,223.88727374887094,0.22727272727272727,0.144734712740336,0.855265287259664,1.7765091988972415,0,236.82561937673017,0.9956618375144899,0,87,238.84409281425178,85,237.84666544990614,1.0235294117647058,0.5655049823636773,0.43449501763632276,-0.26353462831344565,1,256.5388415870257,0.7611703439615667,1,24,258.32352081360295,69,257.5594981308095,0.34782608695652173,0.001465964702169531,0.9985340352978305,6.523774713174801,0,240.32864988734946,1.0289382031187415,1,24,242.38068018388003,90,241.34884539525956,0.26666666666666666,3.564146533530099e-05,0.9999643585346647,10.241965199198917
47,0,227.35289358347654,1.0790927507914603,1,59,229.4544589719735,65,228.3736532377079,0.9076923076923077,0.014189496931920287,0.9858105030680797,4.240962110326971,1,241.34581211861223,0.8786811768077314,1,40,243.24676603265107,93,242.36637463793159,0.43010752688172044,2.2479422955301587e-05,0.9999775205770447,10.702887722840773,0,260.82510303193703,2.4132675635628402,1,80,264.2619707370177,60,261.84573626704514,1.3333333333333333,0.23283069722465732,0.7671693027753427,1.1923959426498758,0,244.881273960229,1.7460229229182005,0,14,247.65125257940963,7,245.90196210891008,2.0,0.49393804724308177,0.5060619527569182,0.02424899918698045
48,1,231.9559653387405,0.8956280993297696,1,15,233.8738511633128,56,232.9765756605193,0.26785714285714285,0.01742509749993215,0.9825749025000678,4.032265025442907,1,245.7483541769907,0.8623616104014218,0,6,247.63328482024372,8,246.7692627692595,0.75,0.4789533111137053,0.5210466888862947,0.08423653064213532,0,266.7615176024847,1.1457067164592445,0,50,268.93182910000905,7,267.7830843660049,7.142857142857143,0.9900069311345044,0.00999306886549553,-4.5958202050206705,1,250.1518052695319,1.0622813338413835,1,26,252.23732052370906,84,251.17215998703614,0.30952380952380953,0.00011789730870870319,0.9998821026912913,9.045578673320536
49,0,236.37546696187928,0.9124087016098201,1,78,238.31016301782802,65,237.39611046854407,1.2,0.028171846155621294,0.9718281538443787,3.5408558764020386,0,250.13491484103724,1.1623735409229994,1,60,252.31961840298027,61,251.1555931130424,0.9836065573770492,0.45190860847330305,0.548091391526697,0.19296208015669838,0,271.43214119784534,0.9288685144856572,0,28,273.38465331075713,18,272.4528313218616,1.5555555555555556,0.7998629761595115,0.20013702384048854,-1.3854381820337973,1,254.73802649741992,0.9950451473705471,1,15,256.7549453708343,56,255.75859217718244,0.26785714285714285,0.0010263071337488494,0.9989736928662512,6.880761392250082
50,0,240.81121150916442,0.711990806274116,1,35,242.54651445755735,62,241.8325842982158,0.5645161290322581,0.01082183885425747,0.9891781611457425,4.515308249574343,1,254.82149889227003,1.4294148837216198,1,45,257.27260300843045,40,255.84195118956268,1.125,0.7540006591814215,0.24599934081857855,-1.1200643859239925,0,275.8852127166465,0.8949130391702056,0,14,277.8021677779034,7,276.9058834826574,2.0,0.8842667096289786,0.11573329037102138,-2.0334704019582257,0,259.25750892050564,0.762024465482682,1,15,261.04334172420204,42,260.27838946320117,0.35714285714285715,0.007586833155785788,0.9924131668442142,4.873725254095992
51,0,245.04808442946523,0.6955855116248131,1,58,246.76587907364592,58,246.06867144210264,1.0,0.05445021243965131,0.9455497875603487,2.8544797931741352,1,259.77452892949805,1.5459108045324683,0,69,262.3429510886781,61,260.7953739175573,1.1311475409836065,0.8311716530968749,0.16882834690312506,-1.5939538356611127,0,280.3047637222335,0.9953931961208582,1,35,282.3238965161145,62,281.3257983387448,0.5645161290322581,0.009064053371369507,0.9909359466286305,4.694333485165573,1,263.5439473525621,1.5961830806918442,0,33,266.1634552171454,25,264.56436488451436,1.32,0.6432374910434858,0.3567625089565142,-0.5894436850894528
52,1,249.2675798102282,2.562849431298673,0,25,252.85305081726983,37,250.288489587605,0.6756756756756757,0.5497192119732961,0.4502807880267039,-0.19953626261342833,0,264.8447320223786,1.2149960338138044,1,7,267.0796118606813,54,265.86287281895056,0.12962962962962962,9.275049088319776e-05,0.9999072495091168,9.285504809157043,1,284.82489206967875,1.4625837923958898,0,16,287.31055728858337,10,285.8451219475828,1.6,0.8490696483661051,0.1509303516338949,-1.7273227357635614,0,268.66363062430173,1.7630468825809658,0,51,271.45040485821664,7,269.6843164023012,7.285714285714286,0.9979665224977803,0.0020334775022197134,-6.195972348428747
53,0,255.35493960324675,1.0457598916254938,1,86,257.4229635405354,59,256.3755763936788,1.4576271186440677,0.11649206132582479,0.8835079386741752,2.02607714964438,1,269.58136395551264,1.3957300251349807,1,55,271.99964484060183,95,270.6020252397284,0.5789473684210527,0.00029348745953172717,0.9997065125404683,8.133382116393054,0,289.81134424963966,2.629982901737094,1,6,293.46502131735906,26,290.8319743243046,0.23076923076923078,0.20158081147804763,0.7984191885219524,1.376443407921608,1,273.95077226450667,0.9620417691767216,1,4,275.9367262730375,22,274.9715828821063,0.18181818181818182,0.020718628883744872,0.9792813711162551,3.8557857662558823
54,0,259.92474012915045,1.012121255043894,0,62,261.95934073859826,17,260.94542116625234,3.6470588235294117,0.9964226820942113,0.003577317905788797,-5.629558215870066,1,274.5062451213598,0.9954263814724982,0,82,276.5189921525307,40,275.52191639272496,2.05,0.9997895967619904,0.00021040323800958246,-8.46627426206388,0,295.96524373674765,1.5126794762909412,0,41,298.5014305151999,22,296.9859156878665,1.8636363636363635,0.8471901188545073,0.15280988114549268,-1.7127305890977245,1,278.43712884001434,1.4124703309498727,0,74,280.8730926462449,60,279.45782923558727,1.2333333333333334,0.9216176053891308,0.07838239461086913,-2.4645310492244823
55,0,264.46099011739716,0.7453726530075073,1,14,266.2287646923214,57,265.4817343642935,0.24561403508771928,0.013755770925023447,0.9862442290749766,4.272445581061732,1,279.0211602463387,0.895514321513474,1,54,280.93885802151635,78,280.0416326918639,0.6923076923076923,0.007705513268468911,0.9922944867315311,4.858083843315076,1,301.00194962508976,1.1123560797423124,1,55,303.13808322837576,95,302.0226393537596,0.5789473684210527,0.00027339743516885395,0.9997266025648311,8.204310580143844,1,283.37355368211865,1.9732851986773312,0,54,286.3768164892681,31,284.4005406801589,1.7419354838709677,0.9630194403853035,0.036980559614696484,-3.259681240164409
56,0,268.7305736755952,0.7120279418304563,1,60,270.4649940584786,70,269.7512799971737,0.8571428571428571,0.005374083211445169,0.9946259167885548,5.220778709286915,0,283.4405235978775,1.0285478825680912,1,54,285.49181868648157,80,284.4615870541893,0.675,0.005133752501740085,0.9948662474982599,5.266771429897006,0,305.6382898450829,0.8788186577148736,1,14,307.54101995239034,57,306.6590771540068,0.24561403508771928,0.004314127075097374,0.9956858729249026,5.44153681523287,1,288.87750073475763,1.6461112587712705,1,15,291.54715564101934,42,289.8981161918491,0.35714285714285715,0.007586833155785788,0.9924131668442142,4.873725254095992
57,0,272.96677617775276,0.7620244650170207,1,96,274.75111249135807,89,273.9873880795203,1.0786516853932584,0.00042730464137397117,0.999572695358626,7.75758595731445,1,287.998243954964,0.8454632796347141,1,24,289.8614454646595,69,289.0142407566309,0.34782608695652173,0.00012647036220503338,0.999873529637795,8.975376089756137,1,310.04138933401555,1.979608147405088,0,94,313.044511499349,46,311.0619218284264,2.0434782608695654,0.8695601656410878,0.13043983435891215,-1.8970754460212542,0,294.04740097373724,1.3124334323219955,1,53,296.38353844871745,57,295.06812862865627,0.9298245614035088,0.34619981286565116,0.6538001871343488,0.6357856783120547
58,1,277.25288907950744,1.0621343711391091,1,24,279.3375043850392,69,278.2737127337605,0.34782608695652173,0.0017542415039228931,0.9982457584960771,6.343962924995498,1,292.36297751031816,1.112260869704187,0,74,294.4977240548469,60,293.3838110412471,1.2333333333333334,0.9421891019052832,0.05781089809471689,-2.79102869329531,0,315.5449492270127,3.1304147033952177,0,60,319.6986610600725,40,316.5656749061309,1.5,0.592444306317355,0.40755569368264505,-0.37407927585854617,1,298.8841022006236,1.3125250865705311,0,58,301.2200476755388,6,299.9047156823799,9.666666666666666,0.9994560617301966,0.0005439382698033808,-7.5161307059153115
59,1,281.83899178914726,0.9290628843009472,0,16,283.7904700273648,10,282.8597881840542,1.6,0.9953112719786303,0.004688728021369636,-5.3578941895164895,0,297.0044080885127,0.9453484751284122,1,14,298.96751573169604,57,298.02049417374656,0.24561403508771928,0.00020166263472065626,0.9997983373652793,8.508712698950756,0,322.2050950201228,1.6126820044592023,1,22,324.83591821603477,31,323.22013379912823,0.7096774193548387,0.27187665097410585,0.7281233490258942,0.9851219949463004,1,303.7207094025798,1.8962380727753043,0,46,306.64013754436746,36,304.7413410572335,1.2777777777777777,0.7681634423548809,0.2318365576451191,-1.1979698955863025
60,1,293.3176964321174,0.7777052181772888,1,26,295.1149986409582,84,294.33551367372274,0.30952380952380953,8.958255057822662e-05,0.9999104174494218,9.320260418396774,1,308.493187176995,1.19494274770841,0,94,310.70771861914545,46,309.51114822085947,2.0434782608695654,0.9999338001432413,6.619985675867638e-05,-9.622766056741805,0,334.3614253164269,2.0455528795719147,0,62,337.42742970306426,17,335.3789478424005,3.6470588235294117,0.9812002936679969,0.018799706332003088,-3.954935362603261,0,316.1660112608224,0.9951992211863399,1,35,318.1806375961751,62,317.1838913168758,0.5645161290322581,0.01238706676343837,0.9876129332365616,4.378637927651166
61,0,297.6166025879793,1.662772552575916,0,45,300.3017849638127,42,298.6373472302221,1.0714285714285714,0.479967203957124,0.520032796042876,0.08017410242156425,0,313.21070567378774,2.4799633068032563,1,22,316.7126537184231,31,314.2310497239232,0.7096774193548387,0.1669492945364267,0.8330507054635733,1.6074043704361218,0,339.9273882214911,1.0125167109072208,0,53,341.9636393948458,15,340.9484066409059,3.533333333333333,0.9737464108108086,0.026253589189191424,-3.6133482005252953,1,320.68188401311636,0.8787728305906057,1,40,322.5844628121704,93,321.7026499886997,0.43010752688172044,0.00034136429176678806,0.9996586357082332,7.982218924040462
62,0,302.80241232039407,1.4125679107382894,1,38,305.22169547434896,43,303.807472653687,0.8837209302325582,0.36785247051762704,0.632147529482373,0.5414408371745733,1,319.2144022574648,1.4490608614869416,0,88,321.6822490496561,96,320.2313811802305,0.9166666666666666,0.14360061675117353,0.8563993832488265,1.7857008850185805,1,344.46431376365945,0.9787425687536597,1,15,346.46675721462816,56,345.48512675147504,0.26785714285714285,0.005373647177132734,0.9946263528228673,5.220860287470672,1,325.0849242429249,0.812194025143981,1,14,326.9207634469494,57,326.1055487864651,0.24561403508771928,0.0007518397693258017,0.9992481602306742,7.192235206880111
63,0,307.72325517470017,0.7450246047228575,1,71,309.49102026829496,64,308.7443059887737,1.109375,0.026714866079418864,0.9732851339205811,3.595456892962133,1,324.18433181010187,1.0121101937256753,0,46,326.21885064197704,36,325.2050977856852,1.2777777777777777,0.8943519198481154,0.10564808015188462,-2.13598577195652,0,348.96734071942046,1.0458128293976188,1,59,351.03664070321247,65,349.9878597818315,0.9076923076923077,0.03123143223316227,0.9687685677668377,3.434600716155411,1,329.42174991359934,0.9789519510231912,0,32,331.4234463046305,16,330.4416605825536,2.0,0.8470394353965567,0.1529605646034433,-1.7115671119980924
64,0,311.9932093000971,0.8965019737370312,0,14,313.9108497914858,7,313.01250011846423,2.0,0.997252184293993,0.002747815706007071,-5.894197373761131,0,328.7207410079427,1.128970361314714,0,60,330.8721314636059,40,329.7414919710718,1.5,0.9836695343333273,0.016330465666672785,-4.098257578953676,1,353.53715112200007,0.5452893739566207,1,43,355.10554088559,93,354.55772430775687,0.46236559139784944,0.00015694990896464311,0.9998430500910354,8.759426892477348,0,333.9244193392806,2.7969624563120306,1,60,337.744750036858,61,334.94473731610924,0.9836065573770492,0.4918942248180189,0.5081057751819811,0.03242594159478868
65,1,316.41214875131845,0.9121771957725286,1,97,318.3469111775048,61,317.4330909238197,1.5901639344262295,0.11635410853944184,0.8836458914605582,2.027418206091284,1,333.3738819779828,0.8787080408073962,1,19,335.27496112603694,37,334.39457881776616,0.5135135135135135,0.03139811646045976,0.9686018835395402,3.4291057687878785,1,357.6064309575595,1.0455576204694808,1,4,359.6759537560865,22,358.6271728342399,0.18181818181818182,0.284795813586767,0.715204186413233,0.9207955973831211,0,340.2450905791484,1.3622758821584284,0,40,342.6308844303712,15,341.2659288509749,2.6666666666666665,0.960828239114327,0.03917176088567297,-3.1998395599607585
66,0,320.848790877033,0.7454271712340415,1,53,322.6166337975301,57,321.86938302544877,0.9298245614035088,0.05544169873980542,0.9445583012601946,2.8353854166895043,1,337.7768514920026,0.878654707223177,1,50,339.6781514789909,62,338.7978394916281,0.8064516129032258,0.08449619611448678,0.9155038038855132,2.3827680021341253,1,362.1761485207826,0.8620514874346554,1,25,364.0615453356877,37,363.19693978037685,0.6756756756756757,0.15861176378280173,0.8413882362171983,1.6685937107540305,1,345.13182862568647,2.3130465666763484,0,98,348.4683734080754,73,346.1523224040866,1.3424657534246576,0.9903928379824726,0.009607162017527444,-4.6355928066507195
67,1,325.11813028808683,1.0621624207124114,1,37,327.2030572965741,54,326.13910999149084,0.6851851851851852,0.056521633133504,0.943478366866496,2.814949983757966,0,342.1796823395416,2.1965506453998387,1,6,345.3985132286325,26,343.20030253753066,0.23076923076923078,0.02270008725213657,0.9772999127478634,3.7624248098795947,0,366.5622074576095,0.7620446132495999,1,56,368.3476321636699,59,367.5830512600951,0.9491525423728814,0.06002292013324739,0.9399770798667526,2.7511290003476825,1,350.96886446885765,1.129063990432769,0,82,353.1214424772188,40,351.98944476572797,2.05,0.9987415789385221,0.001258421061477873,-6.676638256110489
68,0,329.70470193447545,0.761844317894429,1,24,331.48905010009184,90,330.72549003362656,0.26666666666666666,2.4570167935111797e-05,0.9999754298320649,10.613952966018873,0,347.90029297722504,0.9284019474871457,0,41,349.850891020149,22,348.9209380643442,1.8636363636363635,0.982085497936401,0.01791450206359897,-4.004067813686876,1,370.848606383428,0.9455523267388344,0,74,372.8178730243817,60,371.86929176654667,1.2333333333333334,0.1652801504816368,0.8347198495183632,1.619454243160282,0,355.62203822890297,0.9622681392356753,1,50,357.60797050921246,7,356.64276667358354,7.142857142857143,0.9975951458179838,0.0024048541820161445,-6.027858257952646
69,0,333.9908330095932,0.8288000109605491,1,55,335.8419136586599,60,335.01143582491204,0.9166666666666666,0.033192078285994575,0.9668079217140054,3.3716886009341422,0,352.35315155796707,1.5960795748978853,0,77,354.9718752275221,72,353.3739001508802,1.0694444444444444,0.717995811623217,0.28200418837678304,-0.9345418124096041,1,375.3183952947147,1.5291159804910421,1,58,377.87099131802097,58,376.33908423315734,1.0,0.0787628475911919,0.9212371524088081,2.4592760891670595,0,360.10830157017335,1.5794423799961805,1,55,362.7110639931634,60,361.1289707557298,0.9166666666666666,0.32527446278773287,0.6747255372122671,0.7296366698214306
70,1,338.3436479754746,1.412439911160618,0,82,340.77857316704467,40,339.3644680744037,2.05,0.8442052724490512,0.1557947275509488,-1.6898563870988452,1,357.47324806358665,2.012822488322854,1,53,360.50870121410117,55,358.4941862854175,0.9636363636363636,0.41175311195662867,0.5882468880433713,0.35672281049139615,0,380.371668452397,0.9458486218936741,1,87,382.3408675380051,85,381.39210178656504,1.0235294117647058,0.011754850067375311,0.9882451499326247,4.431664867316626,0,365.2117166337557,1.245821837335825,1,45,367.48098019324243,92,366.2323273504153,0.4891304347826087,0.0009126101437323397,0.9990873898562677,6.998288747505946
71,1,343.28032486652955,1.9961675154045224,0,94,346.29903692100197,46,344.30109755788,2.0434782608695654,0.7134157091041107,0.28658429089588927,-0.9120315907884801,1,363.0102806673385,0.6621041093021631,1,17,364.6946839829907,82,364.0309415566735,0.2073170731707317,2.2118725256925487e-06,0.9999977881274743,13.02166889261939,0,384.84129222808406,0.8122114078141749,0,40,386.6772471847944,15,385.8619013642892,2.6666666666666665,0.9363181193602291,0.06368188063977089,-2.688055216086079,1,369.9815388089046,1.8959891847334802,0,94,372.9011787031777,46,371.0023186118342,2.0434782608695654,0.9996040588688359,0.0003959411311641066,-7.833848996900538
72,1,348.8006981513463,1.695976227056235,1,56,351.5192655348219,46,349.82137642335147,1.2173913043478262,0.3803222000663903,0.6196777999336097,0.48818087706137875,0,367.2014363622293,1.5960693028755486,1,53,369.81488004373387,57,368.21710921404883,0.9298245614035088,0.31747276474552555,0.6825272352544745,0.765410397073337,0,389.1774988383986,0.9622475956566632,1,68,391.1634046495892,63,390.1981688141823,1.0793650793650793,0.07620852922324117,0.9237914707767588,2.4950129767021596,0,375.401981071569,1.8128352090716362,0,87,378.2380268923007,76,376.4224744550884,1.144736842105263,0.9134304135370203,0.08656958646297971,-2.3562586389520304
73,0,354.02098365407437,0.9787887907586992,0,28,356.0215908624232,18,355.0415137782693,1.5555555555555556,0.984833800696428,0.01516619930357194,-4.173403675013208,0,372.31666611367837,1.3627159800380468,0,14,374.7014253004454,7,373.33701411494985,2.0,0.8466386353107229,0.15336136468927705,-1.7084769655979999,0,393.66385106835514,1.1455455315299332,1,78,395.83309629699215,65,394.68461822904646,1.2,0.11083409136446432,0.8891659086355357,2.082249431205789,0,380.73881701380014,1.1624628249555826,0,80,382.9248859062791,60,381.7594241751358,1.3333333333333333,0.9699159880726856,0.030084011927314306,-3.473215592081087
74,0,358.5239655729383,1.645515901967883,0,6,361.19224329758435,26,359.5449895230122,0.23076923076923078,0.8501899298668538,0.14981007013314612,-1.7360914787495272,1,377.20294509921223,1.5293387942947447,0,32,379.75487900106236,16,378.22384618548676,2.0,0.9690281416867251,0.030971858313274897,-3.4432146576148877,1,398.3337347153574,1.6457837531343102,0,58,401.00149411987513,6,399.3540878519416,9.666666666666666,0.9951054745793118,0.0048945254206882996,-5.314731416711702,0,385.42527543613687,1.0286976108327508,1,28,387.4775842502713,41,386.4461220041849,0.6829268292682927,0.07277104659549749,0.9272289534045025,2.5448823537528127
75,0,363.6927031483501,0.8296489962376654,1,87,365.5285273399204,76,364.69707489106804,1.144736842105263,0.004295476501785855,0.9957045234982141,5.445888057761793,1,382.2565224538557,1.2289025685749948,1,43,384.50774595700204,93,383.2771450220607,0.46236559139784944,4.078117964256833e-05,0.9999592188203574,10.107249084237182,1,403.5037238430232,1.6461278512142599,0,72,406.1735079344362,51,404.5243697199039,1.411764705882353,0.3974010981471582,0.6025989018528418,0.4163057109026839,1,389.9781638048589,1.312332296743989,1,25,392.31444547651336,37,390.9990992611274,0.6756756756756757,0.07757322060039584,0.9224267793996042,2.4757857285656715
76,1,368.03013800270855,0.9121839115396142,1,52,369.9647510959767,68,369.0508703980595,0.7647058823529411,0.0060064635085783635,0.9939935364914216,5.108894563272881,0,387.0097228414379,1.2831183411180973,0,96,389.31100331246853,89,388.02627549367025,1.0786516853932584,0.7743563828076473,0.22564361719235268,-1.2330753709673719,0,408.6738508474082,0.77876200620085,1,77,410.4762995131314,72,409.69451766228303,1.0694444444444444,0.039168476593154034,0.960831523406846,3.1999268250309467,1,394.81489742640406,1.8462372040376067,1,58,397.68460914259776,58,395.83546824147925,1.0,0.5153514359877938,0.4846485640122063,-0.061425049914590725
77,1,372.4665253139101,1.0622011362574995,0,41,374.55132866837084,7,373.4874228448607,5.857142857142857,0.9989821915144234,0.0010178084855766688,-6.889085179864979,0,391.8128691846505,1.1622494920156896,0,62,393.99756405549124,17,392.8335861726664,3.6470588235294117,0.9998984905606186,0.00010150943938139304,-9.195257250383284,1,412.976702474989,0.8562717479653656,1,53,414.86245168419555,55,414.0033777700737,0.9636363636363636,0.08575081515572625,0.9142491848442738,2.3666575732275956,1,400.18503896845505,1.5459625581279397,0,45,402.7547660130076,40,401.2057192157954,1.125,0.6121638238066975,0.38783617619330246,-0.45641690849476196
78,0,377.0529646151699,0.6282758438028395,1,37,378.70357877667993,52,378.07365592429414,0.7115384615384616,0.08254315729838102,0.917456842701619,2.4082842655650505,1,396.49943071743473,1.2457929975353181,1,58,398.76757467444986,58,397.5200422243215,1.0,0.5057439657927403,0.4942560342072598,-0.02297687397892125,1,417.36301859654486,0.8621632899157703,1,28,419.24865995394066,82,418.3836984485388,0.34146341463414637,0.00027940436196205454,0.999720595638038,8.182571055970685,0,405.25522309867665,1.8294119597412646,0,28,408.10848092800006,18,406.2758741113357,1.5555555555555556,0.67969952845504,0.32030047154496,-0.7523913017859698
79,0,381.2056990680285,1.7294331351295114,1,12,383.95751832285896,23,382.22638484602794,0.5217391304347826,0.9287189887552325,0.0712810112447675,-2.567176235173087,0,401.2693923492916,1.0456295213662088,0,95,403.33732502767816,16,402.28990390570834,5.9375,0.9999998818872531,1.181127469008984e-07,-15.951626068339557,1,421.7493141745217,0.7950033503584564,1,14,423.5684162331745,57,422.7703697294928,0.24561403508771928,0.004314127075097374,0.9956858729249026,5.44153681523287,0,410.60867648292333,1.2785518332384527,1,60,412.91096435906366,70,411.62979169236496,0.8571428571428571,0.21037550461985854,0.7896244953801415,1.3226634589795287
80,0,393.48447490110993,1.3778460179455578,0,40,395.88166349055246,15,394.5021929824725,2.6666666666666665,0.9946514911359062,0.005348508864093782,-5.225574610570956,0,412.86423775414005,1.1780471825040877,1,45,415.06161210127175,60,413.88190131727606,0.75,0.04894794182465745,0.9510520581753426,2.966811479895412,0,433.09405923401937,2.0781299876980484,1,60,436.19346324540675,61,434.11234857328236,0.9836065573770492,0.0592214619469702,0.9407785380530298,2.7654237553617205,0,422.43718809913844,1.4613994001410902,0,60,424.9193274010904,40,423.4550326000899,1.5,0.9515761966098035,0.04842380339019646,-2.978128265636272
81,0,398.38387385569513,1.4125141827389598,1,68,400.81879983702675,63,399.4045912385918,1.0793650793650793,0.029236438218173455,0.9707635617818265,3.502667123432775,0,417.5634179241024,1.8462944878265262,1,45,420.43199226027355,92,418.58403733186424,0.4891304347826087,7.441245081774017e-05,0.9999255875491823,9.505812865206257,0,438.6937243803404,1.5459566316567361,1,96,441.2638223869726,89,439.7145867506042,1.0786516853932584,0.012259994923456419,0.9877400050765436,4.389077993926293,1,427.42002270789817,0.7785395863465965,1,55,429.22229004092515,95,428.440882707946,0.5789473684210527,0.003181464824390412,0.9968185351756096,5.747227015206517
82,0,403.3204369689338,1.0789544791914523,0,53,405.4217218644917,15,404.3411397347227,3.533333333333333,0.9966804291227171,0.0033195708772828045,-5.7045946653616975,1,422.93360529327765,1.3291883557103574,0,97,425.28528129914775,61,423.95443566376343,1.5901639344262295,0.9992182924069444,0.0007817075930556317,-7.153247795983187,1,443.76394841168076,2.279970496892929,1,50,447.06738828495145,62,444.7845757207833,0.8064516129032258,0.0259147193779673,0.9740852806220327,3.6266877338895576,0,431.7227502865717,1.2126027555204928,0,86,433.9588160975836,59,432.74335270700976,1.4576271186440677,0.9902940215432328,0.009705978456767213,-4.625259859091551
83,1,407.9234877862036,0.7954007810913026,1,42,409.7414224399254,67,408.94427035422996,0.6268656716417911,0.005096768990865308,0.9949032310091347,5.274038669400083,1,427.7868967028335,1.2291439506225288,0,58,430.0383726498112,6,428.8075974932872,9.666666666666666,0.9999762725476424,2.3727452357565714e-05,-10.648854125109375,0,449.56760714855045,1.345921155065298,1,87,451.93727619806305,76,450.58848492614925,1.144736842105263,0.043681615997997025,0.956318384002003,3.0861635682222244,0,436.45930083701387,1.045627941377461,1,7,438.52850324101746,54,437.4800087385811,0.12962962962962962,0.00035645192383049196,0.9996435480761695,7.938954667751346
84,0,412.2432981887832,0.7452474189922214,1,45,414.01091513456777,92,413.2638377943076,0.4891304347826087,3.546896295547608e-05,0.9999645310370445,10.246817057243485,0,432.5400654855184,1.9794931844808161,1,59,435.5420779250562,65,433.560864251107,0.9076923076923077,0.2298986683666665,0.7701013316333335,1.2088834661892267,1,454.43770839460194,0.7953111021779478,1,88,456.256616873201,96,455.45853046886623,0.9166666666666666,0.002460345605390546,0.9975396543946095,6.004990071680282,0,441.0277360328473,0.7149071446619928,1,37,442.76457774313167,52,442.0468451231718,0.7115384615384616,0.0685734114779557,0.9314265885220443,2.608812505160366
85,0,416.5126372044906,1.2124937186017632,1,80,418.7473886483349,60,417.5332214520313,1.3333333333333333,0.07940227149534307,0.9205977285046569,2.4504961878750255,0,438.04360760049894,1.4291810072027147,1,28,440.49529522145167,41,439.0644565387629,0.6829268292682927,0.07874188508978675,0.9212581149102133,2.459565026133952,1,458.7573686740361,1.4293153276666999,1,75,461.21020197076723,70,459.7779347486794,1.0714285714285714,0.04550851359870245,0.9544914864012976,3.0432793031801033,1,445.2651391243562,1.5460625081323087,0,87,447.8345947624184,89,446.28576366836205,0.9775280898876404,0.6207145496122494,0.37928545038775063,-0.49258222495185056
86,0,421.24900602689013,0.9790325434878469,0,41,423.2500363457948,22,422.26961634866893,1.8636363636363635,0.9789399473557455,0.021060052644254486,-3.839092293418121,0,442.99703546380624,1.679332710802555,1,45,445.6988447634503,42,444.0177848469466,1.0714285714285714,0.6707053107298516,0.3292946892701484,-0.7113767993420516,1,463.71044690860435,1.0120754283852875,0,14,465.74639507057145,8,464.7313507604413,1.75,0.8680664932141894,0.1319335067858106,-1.8839702576144033,1,450.33527624234557,0.9456017091870308,0,62,452.30451680906117,43,451.35589367477223,1.441860465116279,0.9470637111332662,0.05293628886673382,-2.8842772741268945
87,1,425.75189945241436,1.1621491466648877,0,72,427.9368171375245,51,426.7729739700444,1.411764705882353,0.28592018809836683,0.7140798119016332,0.9152820281858298,1,448.20548573555425,1.8342459239065647,0,66,451.0526489620097,59,449.21669440018013,1.11864406779661,0.8032927734877964,0.19670722651220365,-1.4070027836371164,1,468.2469457848929,0.8954412355087698,1,69,470.1662249886431,61,469.2677247975953,1.1311475409836065,0.10670619638441103,0.893293803615589,2.1248363045961107,0,454.8049426842481,1.0954257491976023,0,78,456.92438299395144,34,455.8258038694039,2.2941176470588234,0.9989567183128041,0.0010432816871959033,-6.864340239129246
88,1,430.438580293674,1.6294159893877804,0,15,433.09041993366554,19,431.4592502694577,0.7894736842105263,0.970432060928408,0.02956793907159203,-3.4910507611260098,1,453.5541035756469,2.3799896179698408,0,33,456.9564528441988,25,454.5747739463113,1.32,0.858473244552531,0.14152675544746895,-1.802666730864801,0,472.66659516096115,0.995416899677366,1,58,474.6852898322977,58,473.6873469138518,1.0,0.0787628475911919,0.9212371524088081,2.4592760891670595,0,459.42468758579344,1.4791407901793718,1,54,461.9274474806152,80,460.4453615122475,0.675,0.022644239171000224,0.9773557608289998,3.7649452433747306
89,1,435.59180936263874,1.1122976103797555,0,32,437.72667561098933,16,436.61266422690824,2.0,0.9912286993271211,0.008771300672878879,-4.727460179295582,1,459.45811367966235,1.696082893293351,1,43,462.17657834710553,97,460.4787994576618,0.44329896907216493,1.8008939823510595e-05,0.9999819910601765,10.924624257397621,0,477.1863841507584,0.6787156257778406,1,7,478.88903137436137,54,478.20701145986095,0.12962962962962962,0.004105674686893268,0.9958943253131067,5.491271066130201,0,464.4281826885417,0.97867027297616,0,71,466.4307430777699,64,465.4488846641034,1.109375,0.8000728732499076,0.1999271267500924,-1.38674988118074
90,1,440.2284877547063,0.6951896608807147,1,58,441.94599795527756,58,441.24917590338737,1.0,0.05445021243965131,0.9455497875603487,2.8544797931741352,0,464.6782328616828,1.2291198521852493,0,62,466.929737648461,16,465.6989142941311,3.875,0.9999172497727367,8.275022726338909e-05,-9.399601043674254,1,481.3891890035011,1.2947714496403933,0,32,483.70826775347814,16,482.41077117435634,2.0,0.8775191410969776,0.12248085890302238,-1.969144004395047,0,468.93133803922683,1.0123855508863926,0,95,470.9667963255197,16,469.9516082131304,5.9375,0.9999954607980859,4.539201914122797e-06,-12.30275481199244
91,0,444.44792466657236,0.9954777392558753,1,15,446.46576442662627,42,445.4686132101342,0.35714285714285715,0.23404589967973477,0.7659541003202652,1.1856049980925052,0,469.4314802614972,3.047007889021188,1,12,473.50061471480876,23,470.4519696943462,0.5217391304347826,0.12367106769761305,0.876328932302387,1.9581161527948154,1,486.20905471453443,1.0122769088484347,1,46,488.2448456417769,40,487.2297156038694,1.15,0.3492380576725842,0.6507619423274158,0.6223900919990717,1,473.4673205711879,2.4465056085027754,0,75,476.93755353055894,70,474.48805454652756,1.0714285714285714,0.7683553665742737,0.23164463342572622,-1.199047898161983
92,0,448.9675662992522,1.1830932945013046,1,22,451.16886122943833,31,449.98405653145164,0.7096774193548387,0.7873441521075039,0.21265584789249617,-1.3089903276250778,0,476.0024628089741,1.4456206723116338,0,87,478.47060668701306,76,477.02333071036264,1.144736842105263,0.8911584186976432,0.10884158130235677,-2.1026287679321793,1,490.745350134559,0.6621771957725286,1,10,492.4311156203039,44,491.76592174032703,0.22727272727272727,0.022253731986526137,0.9777462680134739,3.7827404724368,0,479.43793199863285,1.545923841651529,0,62,482.00801499327645,16,480.4588109618053,3.875,0.9988363040787288,0.0011636959212712442,-6.754989826281116
93,0,453.67072907695547,0.895641531329602,0,43,455.58868087641895,7,454.69135362049565,6.142857142857143,0.9990544337338609,0.0009455662661390474,-6.962780572909708,1,480.9725409047678,1.6793034761212766,1,42,483.6741724270396,39,481.9932187818922,1.0769230769230769,0.6745351986822803,0.32546480131771977,-0.7287695406090277,1,494.93147473037243,1.662511812057346,1,98,497.6172982901335,73,495.95220633549616,1.3424657534246576,0.13531932542274083,0.8646806745772592,1.8547229175883442,0,484.50792136369273,1.0454387073405087,0,96,486.57688396563753,89,485.52878886973485,1.0786516853932584,0.8813847343985866,0.11861526560141344,-2.0056090392367585
94,0,458.0903748967685,0.645267013926059,1,7,459.75829509133473,54,459.1111021563411,0.12962962962962962,0.01944782001939327,0.9805521799806067,3.9203808794289037,1,486.175962052308,1.5626218761317432,1,4,488.76084125833586,22,487.19658225029707,0.18181818181818182,0.034153426988459024,0.965846573011541,3.342142062453009,0,500.11827092943713,0.7118280408903956,0,24,501.85370503831655,90,501.1390467816964,0.26666666666666666,6.357175321147768e-05,0.9999364282467885,9.663277744395003,1,489.07779181562364,1.3134206891991198,1,17,491.41489323880523,82,490.0985111738555,0.2073170731707317,3.4590875284901124e-05,0.9999654091247151,10.271886039296852
95,1,462.25969716208056,0.7786750923842192,1,66,464.0609835591167,59,463.2805891619064,1.11864406779661,0.05935490880256733,0.9406450911974327,2.7630310800916775,0,491.26248510647565,1.079028750769794,1,38,493.364021260757,43,492.28329374827445,0.8837209302325582,0.2925998559705667,0.7074001440294333,0.8827904840294373,0,504.354410616681,1.1789364647120237,1,15,506.5571471238509,42,505.37518291315064,0.35714285714285715,0.041972643738197535,0.9580273562618025,3.127858266657155,0,493.91446815337986,2.246469341684133,0,9,497.1842840076424,7,494.93505437579006,1.2857142857142858,0.29633340856041945,0.7036665914395805,0.8648194515674839
96,1,466.56274829572067,0.7285493845120072,1,17,468.31363204680383,82,467.58343999972567,0.2073170731707317,9.656245701483712e-05,0.9999034375429852,9.24522396890663,1,495.86590175004676,0.9790902221575379,1,15,497.8670924631879,56,496.88633468933403,0.26785714285714285,0.0003016858167149694,0.999698314183285,8.105822692791142,0,509.0575836659409,1.4291896987706423,0,43,511.5105260000564,7,510.07825838262215,6.142857142857143,0.9836587350326924,0.016341264967307628,-4.097585521091862,0,499.6848386726342,1.1459030616097152,0,62,501.85416409838945,17,500.7054521548562,3.6470588235294117,0.9986571671607746,0.0013428328392253973,-6.611630102127255
97,1,470.8155050300993,2.463276334106922,0,33,474.3012903477065,25,471.83630498079583,1.32,0.9495167773747017,0.050483222625298266,-2.9343121439498314,1,500.3685233737342,1.1623628744855523,0,41,502.5535461450927,7,501.3894706820138,5.857142857142857,0.9991498308631854,0.0008501691368145556,-7.0692247130514305,0,514.0109056532383,1.1290770275518298,1,45,516.1635480569676,92,515.031543629244,0.4891304347826087,0.00021013000793745906,0.9997898699920625,8.467573981296315,1,504.3546484429389,1.0120876748114824,1,28,506.3907909747213,82,505.37552819633856,0.34146341463414637,0.00021978717737369813,0.9997802128226263,8.422631044061628
98,1,476.80287217115983,0.8956549633294344,1,53,478.72122416691855,40,477.82354451715946,1.325,0.6505080598856653,0.3494919401143347,-0.6212731879502692,1,505.05517419055104,1.4625411261804402,0,53,507.540219954215,40,506.0759046105668,1.325,0.9375224896466464,0.06247751035335359,-2.708434088873158,0,518.6639865743928,1.896207258105278,1,12,521.5838789124973,23,519.6846755128354,0.5217391304347826,0.37733278956931204,0.622667210430688,0.5008846743797339,0,508.8910718630068,1.3125357530079782,1,12,511.2266673143022,23,509.91173670301214,0.5217391304347826,0.06572860397819136,0.9342713960218086,2.654232766600941
99,0,481.2224591271952,1.2791969678364694,0,12,483.5238802395761,3,482.24305285606533,4.0,0.9986866152103058,0.0013133847896942747,-6.63383341710223,0,510.0418638023548,1.1329249194823205,0,62,512.1932475422509,17,511.0586815401912,3.6470588235294117,0.9998984905606186,0.00010150943938139304,-9.195257250383284,0,524.0844082939439,0.7955505093559623,1,45,525.9033807725646,42,525.1049048379064,1.0714285714285714,0.2704053918971,0.7295946081029,0.992566764105117,1,513.7276059789583,1.062216544058174,1,50,515.8133598496206,62,514.7483308678493,0.8064516129032258,0.1350616875391033,0.8649383124608967,1.8569265705096554
