,self_acceptUp,self_cue_times,self_decision_times,self_decisions,self_punishment_values,self_response_times,self_reward_values,self_trial_times,self_punishment_reward_ratio,self_prob_reject,self_prob_accept,self_SV,harm_other_acceptUp,harm_other_cue_times,harm_other_decision_times,harm_other_decisions,harm_other_punishment_values,harm_other_response_times,harm_other_reward_values,harm_other_trial_times,harm_other_punishment_reward_ratio,harm_other_prob_reject,harm_other_prob_accept,harm_other_SV,harm_self_acceptUp,harm_self_cue_times,harm_self_decision_times,harm_self_decisions,harm_self_punishment_values,harm_self_response_times,harm_self_reward_values,harm_self_trial_times,harm_self_punishment_reward_ratio,harm_self_prob_reject,harm_self_prob_accept,harm_self_SV,other_acceptUp,other_cue_times,other_decision_times,other_decisions,other_punishment_values,other_response_times,other_reward_values,other_trial_times,other_punishment_reward_ratio,other_prob_reject,other_prob_accept,other_SV
0,0,0.0033544611651450396,2.591347141424194,0,53,3.620557146263309,15,1.0273895646678284,3.533333333333333,0.9441476270557194,0.055852372944280575,-2.827570526087351,0,0.004895198275335133,1.974436801392585,1,60,3.001778958714567,70,1.0255817665020004,0.8571428571428571,0.06371281593410483,0.9362871840658952,2.6875365156011335,1,0.0035306583158671856,1.475402329931967,0,58,2.502620438230224,6,1.0259353459114209,9.666666666666666,0.9999902494292523,9.750570747662878e-06,-11.538174985827695,0,0.003584386548027396,2.7422366604441777,0,45,3.7707995555829257,42,1.0262889253208414,1.0714285714285714,0.5608392345005352,0.4391607654994648,-0.24456874047178495
1,0,6.1213362062117085,1.330978375975974,1,14,8.47375848190859,57,7.140998776885681,0.24561403508771928,0.0018183171980640234,0.998181682801936,6.308023849719762,0,5.5028657709481195,1.3950686932075769,0,80,7.922074258793145,60,6.525107298512012,1.3333333333333333,0.9711560967302008,0.02884390326979921,-3.5165885686196328,0,5.004067940986715,3.198463529581204,1,77,9.223472062847577,72,6.02369021542836,1.0694444444444444,0.2123404292471497,0.7876595707528503,1.3108751946085797,1,6.270999456406571,3.6176206595264375,0,75,10.891903070965782,70,7.272992142941803,1.0714285714285714,0.4881062276493262,0.5118937723506738,0.04758406586216644
2,1,10.974840553477407,1.5063079356914386,1,53,13.527165565174073,40,12.019139905227348,1.325,0.32571162438837964,0.6742883756116204,0.7276454742757777,1,10.422760479385033,2.183233935968019,1,42,13.625873479410075,39,11.440791844041087,1.0769230769230769,0.4856568474936396,0.5143431525063604,0.05738835518547615,0,11.725527169066481,1.2991862538037822,0,80,14.04421401862055,60,12.743808212224394,1.3333333333333333,0.9191544698297148,0.08084553017028522,-2.4309138938891763,1,13.392524896655232,1.8965501710772514,1,4,16.312307407846674,22,14.413933636038564,0.18181818181818182,0.11521240270761413,0.8847875972923859,2.0385702082840402
3,1,16.027795687201433,1.7330139662371948,1,15,18.78037424897775,19,17.045693126274273,0.7894736842105263,0.3051277899976377,0.6948722100023623,0.8229972857012362,0,16.12637994729448,2.700447524781339,1,45,19.83089896873571,42,17.12822369602509,1.0714285714285714,0.48729550379460296,0.512704496205397,0.05082892537647433,1,16.544619351043366,1.7993640311760828,1,53,19.363551928312518,55,17.56291738175787,0.9636363636363636,0.10321760091187404,0.896782399088126,2.161973855237158,0,18.812820591847412,2.813935058307834,0,9,22.633609954849817,7,19.81752300041262,1.2857142857142858,0.690132456307168,0.3098675436928319,-0.8007386170712755
4,0,21.281304617179558,1.8498678125906736,1,38,24.15126640687231,43,22.29921627836302,0.8837209302325582,0.08543090914343232,0.9145690908565677,2.3707450463182296,1,22.330731858033687,1.566071547102183,1,6,24.916680493741296,8,23.348899123608135,0.75,0.2381526949940138,0.7618473050059862,1.1628341049202786,1,21.86503814707976,0.9482968138763681,1,56,23.83323575335089,46,22.883649065857753,1.2173913043478262,0.6916180001047982,0.3083819998952018,-0.8076945063397094,1,25.133597312960774,1.7323913504369557,1,58,27.869698284077458,58,26.13565439451486,1.0,0.38939853065311825,0.6106014693468818,0.4498411671266109
5,0,26.65156507282518,0.648147796979174,1,24,28.32038798124995,90,27.67040749732405,0.26666666666666666,3.754523514276631e-05,0.9999624547648572,10.189926535533838,0,27.41755673859734,1.4994168903212994,0,62,29.936790668289177,17,28.43555215280503,3.6470588235294117,0.9998179223009578,0.00018207769904217825,-8.610894949899595,1,26.334837724803947,1.2153251192066818,1,15,28.569727834663354,19,27.35307886672672,0.7894736842105263,0.23654120097604436,0.7634587990239556,1.1717367558330507,1,30.37038885045331,1.8175964817637578,0,41,33.20698854641523,7,31.38853280735202,5.857142857142857,0.9924224164391644,0.007577583560835594,-4.874954482288336
6,1,30.82101415260695,0.7657052467111498,1,28,32.60640725388657,82,31.83895030769054,0.34146341463414637,0.0001619818223905778,0.9998380181776094,8.727864441550325,0,32.437688641482964,2.8343312569195405,0,51,36.29131940822117,7,33.45518983458169,7.285714285714286,0.9997709857271192,0.00022901427288080043,-8.381497188861232,1,31.07092723925598,1.4495866873767227,1,6,33.539472499047406,8,32.0892572698649,0.75,0.4254240226324949,0.5745759773675051,0.3005459662323975,1,35.7091317512095,1.4497545881895348,0,58,38.17774535645731,6,36.72563936631195,9.666666666666666,0.9992436344892626,0.0007563655107374362,-7.186229167112575
7,0,35.11180141393561,1.534113894449547,0,40,37.66031527426094,15,36.12514064158313,2.6666666666666665,0.8548667547309202,0.14513324526907975,-1.7732933610216586,1,38.79181007377338,2.016265442944132,1,15,41.8282097899355,42,39.80992479622364,0.35714285714285715,0.0018758443862234575,0.9981241556137765,6.276818775627263,1,36.041071310057305,1.115324566140771,1,66,38.176273359917104,59,37.05963679694105,1.11864406779661,0.4108446574758945,0.5891553425241055,0.3604747076034694,1,40.67773350456264,1.4993892359780148,0,98,43.196683385642245,73,41.695491487160325,1.3424657534246576,0.9198430203617608,0.08015697963823917,-2.440216067979566
8,0,40.16067517467309,1.0322251088218763,0,43,42.212450656923465,7,41.17865004565101,6.142857142857143,0.9590761404567758,0.04092385954322421,-3.154257211537635,1,44.32975566282403,2.100261688232422,1,66,47.44878984976094,59,45.34669942513574,1.11864406779661,0.6934871767788882,0.3065128232211119,-0.8164731569079651,0,40.677656072657555,1.6496778674190864,0,86,43.3466002647765,59,41.69554324017372,1.4576271186440677,0.9819234854493198,0.018076514550680177,-3.994899831157877,1,45.69748575403355,1.432637394289486,1,3,48.133903089910746,18,46.6992670831969,0.16666666666666666,0.17100810455292137,0.8289918954470786,1.5784994283613656
9,1,44.71329964254983,0.7326592016033828,1,17,46.46595682145562,82,45.73147441423498,0.2073170731707317,6.638685361959329e-05,0.9999336131463804,9.619945119683432,1,49.94928130542394,1.349343171925284,0,41,52.31791806127876,7,50.966969362227246,5.857142857142857,0.9981783099140858,0.0018216900859141568,-6.306167238777642,1,45.847513645421714,0.91602508793585,1,25,47.78302036621608,37,46.86569947877433,0.6756756756756757,0.025912545676150978,0.974087454323849,3.62677384797771,0,50.63387859624345,2.2998744496144354,0,12,53.93745516054332,23,51.635749999200925,0.5217391304347826,0.23742234426196362,0.7625776557380364,1.1668637484074513
10,0,48.96644551155623,0.7988840321777388,1,22,50.78567873022985,31,49.984956480097026,0.7096774193548387,0.12327094501389368,0.8767290549861063,1.9618132616093964,0,54.81867618288379,1.5654963386477903,1,71,57.38861735048704,69,55.82099835027475,1.0289855072463767,0.45033257402419424,0.5496674259758058,0.19932705210382623,0,50.283696315134875,1.5134711778955534,0,12,52.81912457686849,3,51.30437142669689,4.0,0.9082901655404427,0.09170983445955733,-2.2929342735974876,0,56.43779017205816,2.267030675779097,1,60,59.70823733357247,70,57.43947471131105,0.8571428571428571,0.1237516573679669,0.8762483426320331,1.957372752682663
11,1,53.28529947181232,0.7820702448952943,1,40,55.07166521286126,93,54.28770302166231,0.43010752688172044,8.969726665819522e-05,0.9999103027333418,9.318980560112065,1,59.88886307820212,1.6324401799356565,1,75,62.523983350605704,70,60.89061951846816,1.0714285714285714,0.6047886587161634,0.3952113412838366,-0.425458409524251,0,55.32034926535562,2.649383547133766,1,45,58.97349734674208,42,56.32284288899973,1.0714285714285714,0.36394849383686556,0.6360515061631344,0.558267187417846,1,62.20861856720876,1.964855786995031,1,26,65.19469543965533,84,63.22814997762907,0.30952380952380953,0.00023821654515021606,0.9997617834548498,8.342092199463108
12,1,57.57208397728391,1.8833037827862427,1,43,60.47562237875536,97,58.59004660136998,0.44329896907216493,6.477536690485675e-05,0.9999352246330951,9.644520389769937,1,65.02706838026643,1.0325648610014468,0,58,67.07833857974038,6,66.04391653789207,9.666666666666666,0.999956363574524,4.363642547603057e-05,-10.039574672325106,1,61.4745612454135,2.616773649235256,0,69,65.11083153972868,61,62.492757350439206,1.1311475409836065,0.4447476436679919,0.5552523563320081,0.22191567806986107,1,67.69526985811535,2.783294143388048,0,14,71.48215194349177,8,68.69714047096204,1.75,0.784229665035555,0.21577033496444495,-1.2904873395837648
13,0,62.975586823304184,1.6991450093919411,0,14,65.67854574962985,7,63.977594127180055,2.0,0.6904893721736706,0.30951062782632943,-0.802408151006474,0,69.57901610899717,1.449215330183506,0,53,72.04864146490581,15,70.5973449543817,3.533333333333333,0.9992187166113733,0.0007812833886267572,-7.1537910316350795,0,67.61212654900737,1.4164782227016985,1,24,70.04815554013476,90,68.6304984560702,0.26666666666666666,2.54807617228181e-08,0.9999999745192383,17.485342086278465,1,73.98310483014211,1.7494587667752057,0,72,76.75239327829331,51,75.00110063934699,1.411764705882353,0.9137700051385341,0.08622999486146583,-2.360560818899589
14,1,68.17887048958801,1.3655691087478772,1,53,70.54828512005042,55,69.1809090032475,0.9636363636363636,0.054127005065118916,0.9458729949348811,2.860775074493655,1,74.54876906960271,2.11680406879168,1,40,77.68527956085745,93,75.56676961947232,0.43010752688172044,9.528951492754345e-06,0.9999904710485072,11.561166339100765,0,72.54874062514864,0.8323180270381272,1,53,74.40049248281866,57,73.56673643435352,0.9298245614035088,0.06436105131833703,0.935638948681663,2.6767210065177514,0,79.2532904612599,2.233782359515317,0,14,82.50669825566001,7,80.27123530767858,2.0,0.8080415977590657,0.19195840224093427,-1.437334846011441
15,0,73.04913924157154,1.0659399918513373,1,45,75.13529962988105,60,74.06728517380543,0.75,0.014477100717696478,0.9855228992823035,4.220604222299015,0,80.18554622679949,2.9669527696678415,1,14,84.15690392442048,57,81.18769772793166,0.24561403508771928,7.016789294078674e-05,0.9999298321070592,9.564549546717053,1,76.90187638066709,1.0326079226797447,1,75,78.95382885017898,70,77.91994488111231,1.0714285714285714,0.22589005771054382,0.7741099422894562,1.2316654972041248,0,85.00698585994542,1.7827833297196776,0,51,87.79337727988604,7,86.00882447289769,7.285714285714286,0.9978671199960216,0.002132880003978414,-6.148146940168667
16,0,77.63572787574958,1.2495401492342353,1,15,79.9046931641642,42,78.65355420392007,0.35714285714285715,0.016402290272543363,0.9835977097274566,4.09379600603532,0,86.65662145591341,2.9009519384708256,0,78,90.57757887779735,65,87.67483928927686,1.2,0.888428644315054,0.11157135568494597,-2.074789986576122,0,81.45485245273449,1.649392238468863,0,40,84.10728823952377,15,82.45662864600308,2.6666666666666665,0.9950429530771612,0.004957046922838869,-5.301975720179817,1,90.2941587100504,1.9331580844009295,1,54,93.2467083533993,78,91.31176103872713,0.6923076923076923,0.019916909127649318,0.9800830908723507,3.8960682788322782
17,0,82.4053947920911,2.683728947187774,0,41,86.10873297683429,22,83.42361460078973,1.8636363636363635,0.7024372872316863,0.2975627127683137,-0.858931124386574,0,93.077642482589,2.0498835360631347,1,12,96.14786809391808,23,94.09608747588936,0.5217391304347826,0.04752382583174408,0.9524761741682559,2.9978339109505057,1,86.60799895389937,1.2161255123792216,1,17,88.82730312540662,82,87.60985297418665,0.2073170731707317,4.3490008594382346e-08,0.9999999565099914,16.950734569229436,1,95.74714924127329,1.8662588848965243,0,97,98.617131969193,61,96.74910005147103,1.5901639344262295,0.9832927954671756,0.01670720453282439,-4.075066899323652
18,0,88.60960882657673,1.5328244160627946,1,6,91.16154351830482,26,89.62755564821418,0.23076923076923078,0.0725379531629885,0.9274620468370115,2.548341957002238,1,98.64831727801356,2.1993263424374163,0,69,101.85104074818082,61,99.65008043439593,1.1311475409836065,0.7366015309000071,0.26339846909999287,-1.028379105122325,0,91.3282516663894,2.0837216780055314,1,45,94.4307067320915,92,92.3462364138104,0.4891304347826087,1.4748600644098886e-06,0.9999985251399356,13.42694596939845,0,101.11774668376893,2.4833560888655484,0,96,104.62096958979964,89,102.13592580123805,1.0786516853932584,0.45909598732900236,0.5409040126709976,0.1639825264393272
19,0,93.66262045397889,1.5828450381522998,1,28,96.26558475312777,41,94.68092836125288,0.6829268292682927,0.052286689731283476,0.9477133102687165,2.8973102009550975,1,104.35215126397088,1.3979874022770673,0,14,106.75437450816389,8,105.35463066550437,1.75,0.6218551477933827,0.37814485220661737,-0.49742985514659277,0,96.93152213760186,2.1165350324008614,0,14,100.05093084217515,7,97.93356381182093,2.0,0.8454011335388959,0.15459886646110413,-1.6989774249124372,0,107.1219959576847,2.3669605129398406,1,71,110.5093645210145,69,108.14046662999317,1.0289855072463767,0.39890887389785246,0.6010911261021475,0.4100135425866224
20,0,105.79014291719068,2.050055387429893,1,68,108.85768962127622,63,106.80603463260923,1.0793650793650793,0.05830626544099149,0.9416937345590085,2.7819705426109804,1,116.26165547850542,1.8320383240934461,0,32,119.11257573310286,16,117.278813758865,2.0,0.9302315491079087,0.06976845089209124,-2.590251618054184,0,109.55831768887583,2.932951072580181,1,71,113.50985992723145,64,110.57564268482383,1.109375,0.36389484455345655,0.6361051554465434,0.558498951114615,1,120.03165069036186,3.083722468232736,0,46,124.13450950826518,40,121.04896580986679,1.15,0.6605134143755049,0.3394865856244951,-0.6655829991151723
21,1,111.35795747244265,1.6496024107327685,0,16,114.02742314478382,10,112.37602873821743,1.6,0.6313420908541629,0.3686579091458371,-0.5379787178960824,1,121.61375143402256,0.8494107273872942,1,17,123.48264379426837,82,122.6315469474066,0.2073170731707317,7.709716050019466e-07,0.999999229028395,14.075613521880625,0,116.01170565129723,1.1820195191539824,1,35,118.19678965699859,62,117.0135181901278,0.5645161290322581,0.0003767974291862819,0.9996232025708137,7.883425969604195,1,126.63495237147436,2.4499651555670425,1,42,130.088469913695,39,127.63667760195676,1.0769230769230769,0.575213240000451,0.4247867599995489,-0.30315352239071586
22,0,116.52805721736513,1.115806540241465,1,96,118.6637538834475,89,117.54614073014818,1.0786516853932584,0.01464873272340994,0.9853512672765901,4.208644365924061,1,125.98322769405786,2.4501765131717548,1,15,129.45318055537064,19,127.00119110825472,0.7894736842105263,0.1745310693060842,0.8254689306939158,1.5538488523039942,1,120.69798748125322,2.5663749537197873,0,32,124.28387369750999,16,121.7163139564218,2.0,0.9645128442817454,0.03548715571825452,-3.302452329034982,1,132.5887583080912,2.0659925349755213,0,82,135.67533113993704,40,133.60739174543414,2.05,0.9947750731020212,0.005224926897978828,-5.249075847484365
23,1,121.16476721432991,1.3998121881159022,1,62,123.58408315863926,43,122.18252993770875,1.441860465116279,0.39546740904756195,0.604532590952438,0.42438720312002653,1,131.95385452907067,0.9484086161246523,1,88,133.9225613687886,96,132.97240105306264,0.9166666666666666,0.0983563618390364,0.9016436381609636,2.2156221339064084,0,126.78468278201763,1.146691998001188,0,62,128.9535657396773,17,127.80549774493556,3.6470588235294117,0.9999307792430705,6.922075692951605e-05,-9.578140561536705,1,138.17588264483493,1.3319166454020888,1,15,140.5111900968477,42,139.1779053560458,0.35714285714285715,0.0272517219120334,0.9727482780879666,3.575008633169211
24,1,126.08466034254525,0.9490221454761922,1,15,128.05325458978768,56,127.10252617672086,0.26785714285714285,0.0022722340108577432,0.9977277659891423,6.084716966238667,0,136.42344235430937,1.6995882675983012,1,24,139.14293734019157,90,137.44134769460652,0.26666666666666666,6.375358402310738e-07,0.9999993624641598,14.265654703987758,1,131.45460158912465,3.1506524824071676,1,42,135.6083161876304,67,132.45648997963872,0.6268656716417911,0.00047776544876865223,0.9995222345512313,7.645912759239567,0,143.01267908106092,2.383102696854621,1,7,146.4162143219728,54,144.03097553143743,0.12962962962962962,0.0017337511337168765,0.9982662488662831,6.355732676605575
25,0,130.55439829081297,0.6661590136354789,1,71,132.2393400745932,69,131.57199311326258,1.0289855072463767,0.03254870019272793,0.9674512998072721,3.391927652298355,1,141.64371640002355,1.350100108422339,1,58,144.01270278473385,58,142.66152376530226,1.0,0.34559829556608745,0.6544017044339125,0.6384442847535455,1,138.11026739294175,1.382327192579396,1,42,140.51143503456842,39,139.12759199389257,1.0769230769230769,0.3918714015978637,0.6081285984021363,0.43945264131116013,0,148.9162056306377,1.315994510310702,0,41,151.25299811630975,22,149.93441595789045,1.8636363636363635,0.9353686949419491,0.06463130505805097,-2.672241885873186
26,1,134.74001760385,0.8158732265001163,1,46,136.57601404201705,40,135.7584242762532,1.15,0.21495148303860612,0.7850485169613939,1.2953331785419202,1,146.51368016505148,1.1653941757977009,1,4,148.69901740481146,22,147.53187706018798,0.18181818181818182,0.011512400345127904,0.9884875996548721,4.45275135261201,0,143.0125791307073,1.0315724683459848,0,51,145.06422068725806,7,144.03137414786033,7.285714285714286,0.9999420817625743,5.791823742571684e-05,-9.756420321620928,1,153.75304315320682,2.450508759357035,1,15,157.22339305072092,19,154.77118078921922,0.7894736842105263,0.45078091328715564,0.5492190867128444,0.19751598533264475
27,1,139.07655527524184,0.6649623744888231,1,55,140.74575507175177,95,140.07851201144513,0.5789473684210527,0.00022777506132087844,0.9997722249386791,8.386924188141492,1,151.2028107785154,0.9652413662988693,1,19,153.18524637573864,37,152.21855671645608,0.5135135135135135,0.011891669752258638,0.9881083302477414,4.419954203567018,1,147.5653339686105,1.8175482843071222,1,37,150.38578081398737,54,148.56733416137286,0.6851851851851852,0.004546232058069255,0.9954537679419307,5.388899910605917,0,159.72403146896977,3.050024967873469,1,87,163.7944135243306,85,160.74237453658134,1.0235294117647058,0.3268502474215308,0.6731497525784692,0.7224657128209185
28,1,143.246056108037,0.7828761689597741,1,45,145.0486861068057,40,144.26400253467727,1.125,0.20158274056957193,0.7984172594304281,1.3764314220085123,0,155.68659353302792,1.3828585492447019,1,37,158.08897717180662,52,156.70438707107678,0.7115384615384616,0.022652809484861036,0.977347190515139,3.764558069496928,0,152.88586575200316,0.9831372251501307,1,56,154.88785646331962,59,153.90397731401026,0.9491525423728814,0.07322581082976021,0.9267741891702398,2.538161976984141,1,166.29497688100673,2.984009914449416,0,16,170.29872956348117,10,167.31277160428,1.6,0.777547444397739,0.2224525556022609,-1.2514308183044773
29,1,147.54910684656352,0.6657260269857943,1,26,149.23413435858674,84,148.5668237428181,0.30952380952380953,0.00010364055425093888,0.9998963594457491,9.174478208511628,1,160.58939751645084,1.7827161693712696,1,16,163.37605915800668,10,161.59129143797327,1.6,0.622882904229864,0.37711709577013597,-0.5018028083525929,1,157.3888496462023,3.030851087416522,1,33,161.42512096755672,25,158.39302069798578,1.32,0.7692105445070809,0.23078945549291904,-1.2038588752103825,0,172.8019327163929,3.316845866269432,0,40,177.1362584424205,15,173.81777662946843,2.6666666666666665,0.9726911340385689,0.02730886596143109,-3.572855185078889
30,0,151.73522314615548,0.598550284979865,1,54,153.33728038566187,80,152.73701751220506,0.675,0.0017701967210058678,0.9982298032789941,6.334892831390261,1,165.87684098328464,1.1659915077034384,1,10,168.06265545636415,44,166.89435442327522,0.22727272727272727,0.0004413738722572891,0.9995586261277427,7.7251767874796435,0,163.92611691588536,2.13336896779947,0,41,167.06264044414274,22,164.92797607195098,1.8636363636363635,0.9762961714543926,0.023703828545607368,-3.7181294176358097,0,179.6371982920682,1.3494229742791504,1,59,182.0065382560715,65,180.65548289066646,0.9076923076923077,0.20579608204919642,0.7942039179508036,1.3504544663323124
31,0,155.837624878739,1.5833625678205863,0,62,158.42407998244744,16,156.83943781268317,3.875,0.9681776301958924,0.031822369804107534,-3.415246077272152,1,170.56363204668742,1.148649129201658,0,94,172.73143372300547,46,171.58141689340118,2.0434782608695654,0.9999083004843059,9.169951569413185e-05,-9.296901756411678,0,169.56366167624947,0.9989981257822365,0,53,171.5655702148797,15,170.56534384505358,3.533333333333333,0.9997063913565547,0.00029360864344531943,-8.132969170374691,1,184.50960392784327,2.816719841910526,0,32,188.34369143215008,16,185.52516063163057,2.0,0.9173939232735966,0.08260607672640342,-2.4074537123469475
32,1,160.92621094034985,0.7988773161778226,1,25,162.74300228815991,37,161.94289356737863,0.6756756756756757,0.07097747767320084,0.9290225223267992,2.5717703712967697,0,175.23317041026894,3.9172118506394327,1,68,180.1702253742842,63,176.25122468848713,1.0793650793650793,0.6011245823869313,0.3988754176130686,-0.41015307330324813,1,174.06636744760908,1.5988256422569975,1,46,176.68529417808168,36,175.0852316004457,1.2777777777777777,0.7691899718610571,0.23081002813894289,-1.2037429933619985,1,190.84470239281654,1.4832020150497556,1,55,193.34754327486735,95,191.8623944001738,0.5789473684210527,0.0018978070331824304,0.9981021929668176,6.2651566423147775
33,1,165.2437319654273,0.998855113866739,1,66,167.26261508115567,59,166.26237764966208,1.11864406779661,0.08507316343495763,0.9149268365650424,2.3753324694860636,0,182.67065796582028,2.114817703142762,0,78,185.79051545949187,34,183.67403099488,2.2941176470588234,0.9997841113881263,0.000215888611873751,-8.440532057142242,1,179.18652242200915,0.781842689961195,1,15,180.97162278334145,42,180.18854236789048,0.35714285714285715,0.0008315983884126243,0.9991684016115874,7.091328995559881,1,195.84754604031332,1.0492755376035348,1,19,197.90031233499758,37,196.84937240637373,0.5135135135135135,0.08854800294899279,0.9114519970510072,2.3314941178786923
34,0,169.76360589358956,1.316368237719871,1,71,172.0991717155557,64,170.78155153011903,1.109375,0.06411078828204408,0.9358892117179559,2.6808844522257305,1,188.29166666662786,1.1485310059506446,1,26,190.46022409421857,84,189.31000854913145,0.30952380952380953,3.3101636995880312e-06,0.9999966898363004,12.618509603560144,0,183.4725472255377,2.380695591447875,1,87,186.8759556520963,85,184.49392712546978,1.0235294117647058,0.0773403644914884,0.9226596355085116,2.4790444085517644,0,200.40040596446488,1.6493993495823815,0,78,203.06983766157646,34,201.41928117896896,2.2941176470588234,0.9963916288013751,0.0036083711986248934,-5.62088390289829
35,0,174.6025727938395,1.066142262890935,1,45,176.6857560040662,42,175.61831952200737,1.0714285714285714,0.15964810168890597,0.840351898311094,1.6608487020375615,0,192.96145549882203,1.0159509745426476,0,53,194.9970567971468,57,193.9794189130189,0.9298245614035088,0.1868267087164438,0.8131732912835562,1.470762741389983,1,189.37667189724743,1.7165482274722308,0,16,192.11277326347772,10,190.39486602693796,1.6,0.7961485346054166,0.20385146539458343,-1.3623941518676832,0,205.57075420266483,1.9002025082008913,1,45,208.49112179875374,92,206.58900127047673,0.4891304347826087,0.0008262334841572239,0.9991737665158428,7.097806580912114
36,0,179.18685071752407,1.2663195662898943,1,9,181.47235167049803,7,180.20471141592134,1.2857142857142858,0.5979466954382466,0.4020533045617533,-0.3969169336735154,1,197.49777778307907,1.3662442676723003,1,53,199.88428195333108,55,198.51568746892735,0.9636363636363636,0.2572961342869966,0.7427038657130034,1.0600697045792675,0,194.61388575471938,1.8331958521157503,1,28,197.46613894449547,41,195.63160778675228,0.6829268292682927,0.017933968185346205,0.9820660318146538,4.002961969724692,0,210.99164841487072,1.1661175321787596,0,50,213.17768807255197,7,212.00933331111446,7.142857142857143,0.9975782198541625,0.0024217801458375266,-6.020827694380634
37,1,183.97338040871546,0.5313346418552101,1,87,185.5245668552816,89,184.9919719696045,0.9775280898876404,0.0071141597981458915,0.9928858402018541,4.938528557123381,0,202.38430131122004,2.3299350204179063,1,22,205.73650274798274,31,203.40537306375336,0.7096774193548387,0.0714069022263587,0.9285930977736413,2.5652761081097872,0,199.96700373257045,0.8829454625956714,1,14,201.86956751905382,57,200.9852642324986,0.24561403508771928,1.4094647369344848e-05,0.9999859053526307,11.16970135710246,0,215.67801399773452,1.3996794476406649,0,53,218.09726317680907,15,216.6957470915513,3.533333333333333,0.9946644070572886,0.005335592942711357,-5.22800538032332
38,0,188.02569356875028,1.3819206749321893,1,87,190.41114608710632,76,189.02811252593528,1.144736842105263,0.04352928519440147,0.9564707148055985,3.089816236934564,0,208.2382670895895,1.6326242783106863,0,87,210.89105369034223,76,209.2564955895068,1.144736842105263,0.8434037881047369,0.15659621189526313,-1.683775239192408,0,204.3704733934719,1.13256857462693,1,68,206.52216646599118,63,205.3883483139798,1.0793650793650793,0.2779944741042504,0.7220055258957496,0.9544315562885185,0,220.59773606457748,1.7495512109017,1,7,223.36697354982607,54,221.61605542851612,0.12962962962962962,0.0017337511337168765,0.9982662488662831,6.355732676605575
39,1,192.912289393018,0.6820728522725403,1,58,194.5976677191211,58,193.91443180770148,1.0,0.05305510675182257,0.9469448932481774,2.881909777204272,0,213.39184855262283,1.2990590441040695,0,62,215.71049155038781,16,214.4096582882339,3.875,0.9998517172690056,0.00014828273099441326,-8.816241468304954,0,209.0230269083986,1.382361957919784,1,54,211.4087101422483,80,210.0250993972877,0.675,0.00022969132009020843,0.9997703086799098,8.378544519306981,1,225.86828515166417,1.2161899072816595,1,53,228.10431224654894,55,226.88618930673692,0.9636363636363636,0.3439152128031463,0.6560847871968537,0.6458948767837467
40,1,204.10447382635903,1.1820854942779988,1,42,206.3049869313836,39,205.12159615615383,1.0769230769230769,0.18580267723270805,0.814197322767292,1.4775175123937612,1,225.2338333223015,2.450523376581259,0,98,228.70327813539188,73,226.25086715840735,1.3424657534246576,0.9898760691423826,0.010123930857617387,-4.58267773950043,0,220.91586113767698,1.9658687228802592,0,78,223.90062601328827,34,221.93346149101853,2.2941176470588234,0.9998312779957812,0.00016872200421883798,-8.687089406660743,1,237.62728898215573,3.0002153081586584,1,10,241.64632103580516,44,238.64417901623528,0.22727272727272727,0.010929501975588507,0.9890704980244115,4.50529987496473
41,0,208.80877990997396,1.3484207050641999,0,62,211.17554960853886,17,209.82588011643384,3.6470588235294117,0.9634921641675634,0.036507835832436566,-3.273037437257627,0,231.20346025843173,1.7152141070691869,0,28,233.94019411702175,18,232.22311216243543,1.5555555555555556,0.794035868703948,0.20596413129605196,-1.3494266012100313,0,226.40166028251406,3.2167852638522163,0,60,230.62151595880277,40,227.40347716701217,1.5,0.9616910932165528,0.03830890678344727,-3.2230108679337555,0,244.1470700710779,1.4993023226270452,1,87,246.6663004453294,76,245.1652835587738,1.144736842105263,0.6454645261754091,0.35453547382459094,-0.5991618450281723
42,0,213.67611138499342,1.6826243571704254,1,58,216.36206254910212,58,214.67817518254742,1.0,0.05305510675182257,0.9469448932481774,2.881909777204272,0,236.44017949979752,2.2500655801268294,1,14,239.69388833048288,7,237.44210858165752,2.0,0.6688030422288469,0.3311969577711531,-0.7027763735519512,0,233.1229788690107,2.366959722712636,0,6,236.50919345964212,26,234.14084233285394,0.23076923076923078,0.007151397981096319,0.9928486020189037,4.933270327757739,0,249.16684602422174,2.0659052265109494,1,14,252.23661455023102,57,250.16856058803387,0.24561403508771928,0.0027182623657940885,0.9972817376342059,5.905040475372425
43,1,218.86327578080818,1.8158582142787054,1,88,221.69883844221476,96,219.88171326799784,0.9166666666666666,0.0028633635904435906,0.9971366364095564,5.85289079375845,0,242.19432961347047,3.2501434070290998,0,60,246.4482683695387,40,243.19616190542,1.5,0.9699055824085355,0.030094417591464435,-3.472859036559627,1,239.00990456913132,2.533031427883543,0,46,242.54632166796364,40,240.0120714775985,1.15,0.5434522845790473,0.4565477154209527,-0.17424869080081426,0,254.7376144491136,2.0336872288025916,1,15,257.7907090393128,42,255.75519188889302,0.35714285714285715,0.0272517219120334,0.9727482780879666,3.575008633169211
44,0,224.19988061254844,0.7003483646549284,1,55,225.9196916471701,60,225.21811898914166,0.9166666666666666,0.031996109545326945,0.968003890454673,3.409621787633099,1,248.94890599767677,2.1499307062476873,1,55,252.11854312638752,95,249.9669464486651,0.5789473684210527,0.00014209615849625212,0.9998579038415037,8.858864450776931,0,245.04719870293047,2.549948721192777,1,59,248.60035018192139,65,246.0490910441149,0.9076923076923077,0.03139837553685498,0.968601624463145,3.42909725001172,0,260.29071298986673,2.0003705670824274,0,62,263.29389915510546,17,261.29229204787407,3.6470588235294117,0.9977174652549804,0.0022825347450196277,-6.080183579560265
45,0,228.41941194410902,1.4326733447378501,0,62,230.85529120720457,17,229.42139870475512,3.6470588235294117,0.9634921641675634,0.036507835832436566,-3.273037437257627,1,254.61926845798735,1.1989150840090588,1,43,256.8387334193103,97,255.63774150062818,0.44329896907216493,7.811127496037962e-06,0.999992188872504,11.75995342768452,1,251.10394681536127,2.8830462030600756,0,94,255.0044424586231,46,252.12008307338692,2.0434782608695654,0.9998864218843944,0.00011357811560560811,-9.082906129986265,0,265.79430922830943,2.016448751091957,0,78,268.8144790569786,65,266.7960794956889,1.2,0.7443327154566337,0.25566728454336635,-1.0686112036403155
46,1,233.35584903298877,2.5170342312194407,0,14,236.8759299730882,8,234.35748656000942,1.75,0.6593052044041045,0.34069479559589555,-0.6601995109919493,1,259.3391581096221,1.2150837370427325,1,3,261.5745989342686,18,260.3578519913135,0.16666666666666666,0.021064053022532003,0.978935946977468,3.838898273998948,1,257.5058548009256,2.149275300442241,1,50,260.6746520304587,62,258.524024831946,0.8064516129032258,0.009786709573342378,0.9902132904266576,4.616895065533429,0,271.31507441366557,1.766025246004574,1,35,274.10084282269236,62,272.333362172707,0.5645161290322581,0.01860446723456677,0.9813955327654332,3.9655738459620777
47,0,239.37658616900444,1.999509334564209,1,12,242.3791789530078,23,240.37840621406212,0.5217391304347826,0.16312928146459615,0.8368707185354038,1.6351265761591123,1,264.075560512254,1.5660822136560455,0,12,266.66177857946604,9,265.09389883920085,1.3333333333333333,0.46929302982224064,0.5307069701777594,0.12298265327548391,0,263.1758862003917,1.166424099355936,1,37,265.36181484605186,52,264.19401909562293,0.7115384615384616,0.007583615029648549,0.9924163849703515,4.874152759325352,1,276.6017431662185,1.332540841307491,1,88,278.9382117019268,96,277.6036829146324,0.9166666666666666,0.09881429749238613,0.9011857025076139,2.2104690377373277
48,0,244.88061025831848,1.3658930587116629,1,60,247.2658103328431,61,245.89869140065275,0.9836065573770492,0.04123576608327628,0.9587642339167237,3.146339210314666,0,269.16227675112896,1.7664914176566526,0,77,271.9483272335492,72,270.1800742398482,1.0694444444444444,0.6058333986899949,0.3941666013100052,-0.4298313627302525,1,267.8623691163957,0.7485426206840202,1,24,269.61405721108895,69,268.8642804204719,0.34782608695652173,5.66897255205312e-06,0.999994331027448,12.080496995406873,1,281.4384815285448,1.9837653718423098,1,45,284.4420512978686,40,282.4565599054331,1.125,0.6314084301544349,0.3685915698455651,-0.5382637533271386
49,0,249.7673423786182,0.8326012857723981,1,56,251.6190871250583,59,250.78520781779662,0.9491525423728814,0.03968397747845054,0.9603160225215495,3.186314904151981,1,274.44921177474316,3.133704374427907,0,54,278.6030318544945,31,275.4675038794521,1.7419354838709677,0.9833045019041708,0.01669549809582913,-4.075779732157701,1,272.1152609613491,1.3168328292667866,1,19,274.4508390300907,37,273.13338674558327,0.5135135135135135,0.007150575237355961,0.992849424762644,4.9333862096061285,1,286.9420086313039,1.8992263128748164,1,40,289.8620238332078,93,287.9609000432538,0.43010752688172044,0.00037761779229117387,0.9996223822077088,7.881250316279985
50,0,254.1210312192561,1.1489675481570885,0,12,256.2887428216636,3,255.13853636290878,4.0,0.7701301458904835,0.22986985410951657,-1.2090462241313917,1,281.10369318630546,1.0316657026996836,0,82,283.1557242728304,40,282.1222649940755,2.05,0.9996773387801181,0.000322661219881851,-8.038584926743525,1,276.95250460645184,1.1658654833445325,0,98,279.1372563659679,73,277.9700338487746,1.3424657534246576,0.9527947546200192,0.047205245379980824,-3.004894495450534,0,292.36233869660646,2.3831074375193566,1,38,295.7654986298876,43,293.3804546042811,0.8837209302325582,0.31141475405730257,0.6885852459426974,0.7935134864721222
51,0,258.7898557080189,1.8992559425532818,1,45,261.7088599493727,92,259.8082683063112,0.4891304347826087,0.00015510072466984326,0.9998448992753302,8.771280702763725,0,285.65629829617683,2.4496570081682876,0,86,289.1096269993577,59,286.65823053848,1.4576271186440677,0.9930850670413439,0.006914932958656113,-4.967133057075144,0,281.6389168065507,1.6826208017300814,0,95,284.3411689690547,16,282.6571796768112,5.9375,0.9999999594966912,4.050330883115194e-08,-17.021882126133217,0,298.2659047524212,2.3000119308708236,0,71,301.58647999248933,64,299.28430786926765,1.109375,0.580353324435056,0.419646675564944,-0.32422398955176124
52,1,264.20989777403884,2.616711624665186,1,19,267.82963556423783,37,265.2116360415239,0.5135135135135135,0.04485792474061856,0.9551420752593814,3.058359832096323,0,291.610603589681,2.316372978501022,1,6,294.94723252009135,26,292.62910823721904,0.23076923076923078,0.007697965666681239,0.9923020343333188,4.859071436216738,0,286.84175681951456,1.2323542146477848,1,7,289.0771162615856,54,287.8435152351158,0.12962962962962962,6.6428573608501296e-06,0.9999933571426391,11.921961718730705,0,304.08705243561417,2.096904856734909,1,6,307.206245041918,26,305.10757663380355,0.23076923076923078,0.08538586122461733,0.9146141387753827,2.371321742418681
53,0,270.331062523881,1.1657276072073728,1,35,272.5163867265219,62,271.3493483077036,0.5645161290322581,0.004888331426045833,0.9951116685739542,5.316003936993973,0,297.4479582468048,1.8329224701737985,1,28,300.3007736080326,41,298.4659911916824,0.6829268292682927,0.03313261111146215,0.9668673888885378,3.373543322113218,1,291.5787822329439,0.8154441906372085,1,3,293.41382578446064,18,292.5971422882285,0.16666666666666666,0.028537382250870214,0.9714626177491298,3.5275879034495645,0,309.7069332378451,1.3328165938146412,0,12,312.06027719040867,3,310.7253659842536,4.0,0.8544684129483177,0.14553158705168232,-1.770086380146082
54,1,275.0176781802438,1.4493306879885495,1,15,277.4866015132284,42,276.0359619888477,0.35714285714285715,0.016402290272543363,0.9835977097274566,4.09379600603532,1,302.8015811123187,3.483187792939134,0,45,307.2885508221807,40,303.80323207133915,1.125,0.5890075388708357,0.4109924611291643,-0.35986411143424246,1,295.9147711650003,1.3328268653713167,1,87,298.26715077413246,89,296.93307275127154,0.9775280898876404,0.029070252596754553,0.9709297474032454,3.508538711112949,0,314.56056835025083,1.5161595667013898,0,43,317.0963975986233,7,315.5783859869698,6.142857142857143,0.994115858891155,0.005884141108845028,-5.129592973864402
55,0,279.9873177583795,1.6995282183634117,0,50,282.6899452287471,7,280.98914096399676,7.142857142857143,0.9763843092687422,0.023615690731257768,-3.7219449158037774,0,309.7890995616326,1.9492560214130208,1,45,312.75875849777367,92,310.80775117175654,0.4891304347826087,3.3026910038147506e-05,0.9999669730899619,10.318154845644276,0,300.76733803295065,2.533395278849639,0,43,304.3044227845967,7,301.76955471909605,6.142857142857143,0.9996693999300018,0.0003306000699981808,-8.01427050611639,1,319.5973848555004,2.382677216315642,0,62,323.0003057770664,43,320.6157192318933,1.441860465116279,0.9056932933067491,0.09430670669325095,-2.262148412440672
56,1,285.19086018949747,1.6811780396383256,1,54,287.87701678532176,31,286.195267487783,1.7419354838709677,0.6532442655644741,0.3467557344355259,-0.6333305293215405,0,315.25984175445046,1.2162811663001776,1,55,317.4956187758362,60,316.2775511445943,0.9166666666666666,0.15819282137654378,0.8418071786234562,1.6717363065893414,1,306.80552539927885,2.232788386521861,0,62,310.0414604449179,43,307.8073158147745,1.441860465116279,0.9471714118190289,0.052828588180971185,-2.8864275948890015,1,325.5009493310936,2.3668822908075526,0,54,328.8881630304968,31,326.51911304111127,1.7419354838709677,0.9528338703711665,0.0471661296288335,-3.005764523268527
57,0,290.3788597439416,1.381318602245301,1,53,292.76335384487174,57,291.38068848033436,0.9298245614035088,0.04128113132348721,0.9587188686765128,3.1451923545227065,1,319.99622361385264,1.616756661562249,0,72,322.6325298587326,51,321.01396342366934,1.411764705882353,0.9759773741564269,0.024022625843573116,-3.7044432742009876,0,312.5421972332988,2.5664741140790284,0,50,316.1285966334399,7,313.5608938803198,7.142857142857143,0.9999279912995004,7.200870049963474e-05,-9.538651594682861,0,331.3886130047031,1.9167606910923496,1,54,334.32485453854315,80,332.4063322714064,0.675,0.014923777255419934,0.9850762227445801,4.189763291687636
58,0,295.26421586750075,1.0325107377720997,1,78,297.3160517939832,65,296.2822223433759,1.2,0.09488422599020718,0.9051157740097928,2.2554053879741134,1,325.1328336604638,1.9660709939198568,0,62,328.11916890274733,43,326.15141455468256,1.441860465116279,0.9634516221092553,0.03654837789074473,-3.2718854713602683,1,318.63040798716247,1.1993946878938004,0,41,320.8487470251275,7,319.6479324888205,5.857142857142857,0.999489052713239,0.0005109472867610221,-7.5787330522402545,1,336.8250445628073,1.3326696312287822,1,87,339.17782476358116,89,337.84328017395455,0.9775280898876404,0.21251098528759105,0.787489014712409,1.3098557385316243
59,1,299.8172381615732,1.2657601601677015,1,46,302.08598616649397,36,300.8189863056177,1.2777777777777777,0.3259635512711031,0.6740364487288969,0.7264986184838182,1,330.6196970989695,1.0325056018773466,1,43,332.67252186266705,93,331.63789122866,0.46236559139784944,1.7759586313892406e-05,0.9999822404136861,10.938567354064212,0,323.349419418606,1.0653537216130644,1,58,325.4182706134161,58,324.35143699415494,1.0,0.13643145500817,0.86356854499183,1.8452509474677117,0,341.6789562177146,2.166450963472016,0,60,344.8649571596179,61,342.69673158298247,0.9836065573770492,0.34620897617598123,0.6537910238240188,0.6357451948335737
60,0,311.59281281696167,3.2003230806440115,1,60,315.811975556775,70,312.61038354074117,0.8571428571428571,0.011818305134732476,0.9881816948652675,4.426216970445383,0,342.19553099328186,1.6157907379092649,1,60,344.83036050084047,61,343.212541915942,0.9836065573770492,0.3016574056897138,0.6983425943102862,0.8394178499529042,1,334.92511780711357,1.098744259797968,1,10,337.0428419725504,44,335.9427714936901,0.22727272727272727,0.00016740622708399933,0.999832593772916,8.69491978153054,1,354.38812510459684,1.6992275770753622,1,6,357.1068528824253,8,355.4057420504978,0.75,0.5675674835788208,0.4324325164211792,-0.2719333732794999
61,1,318.3130402455572,1.551462989184074,1,56,320.8833428937942,46,319.33085235150065,1.2173913043478262,0.2079045892136634,0.7920954107863366,1.3376025839631536,0,347.33049719186965,2.182458431692794,0,96,350.51754899544176,89,348.33301767974626,1.0786516853932584,0.7072504652962726,0.2927495347037274,-0.882067454997972,1,339.54401846358087,0.8982133769895881,1,43,341.44580437534023,93,340.5459621626651,0.46236559139784944,7.376047415075249e-07,0.9999992623952585,14.119856998828562,1,359.60696824023034,1.2485264232382178,1,52,361.8595803822391,68,360.60918295104057,0.7647058823529411,0.0640299997015239,0.9359700002984761,2.6822317061315757
62,1,323.3831362769706,0.882383291143924,1,98,325.2862219387898,73,324.4015010729199,1.3424657534246576,0.14540438879667805,0.854595611203322,1.7711096387584808,1,353.0183327960549,1.4153799536870793,1,15,355.4537932947278,56,354.03667665377725,0.26785714285714285,0.00010603131634800977,0.999893968683652,9.151670033301755,0,343.9466644227505,2.716701511060819,0,96,347.66674370353576,89,344.94869543018285,1.0786516853932584,0.17528564803064928,0.8247143519693507,1.5486201686703382,0,364.3601346524665,1.5998603064799681,1,58,366.97987876366824,58,365.3782762391493,1.0,0.38939853065311825,0.6106014693468818,0.4498411671266109
63,1,327.7859422357287,0.7821788867004216,1,52,329.57141908991616,68,328.787935317494,0.7647058823529411,0.008239143284708428,0.9917608567152916,4.790585638149078,1,357.9543420341797,1.6828673196723685,0,46,360.64082415995654,36,358.95601195609197,1.2777777777777777,0.800397913725101,0.19960208627489898,-1.388783180064036,0,350.16738686244935,1.048663983354345,1,71,352.21932787518017,69,351.1693467590958,1.0289855072463767,0.13641780262583192,0.8635821973741681,1.8453668293160947,1,369.4806617741706,2.3665496496250853,0,56,372.8663118230179,46,370.4986093859188,1.2173913043478262,0.7422489339310141,0.25775106606898585,-1.0576904184294436
64,0,332.0722135571996,1.5659676460782066,0,95,334.65804090932943,16,333.09073282196186,5.9375,0.9977430650372309,0.002256934962769123,-6.09148811166968,0,363.14131364028435,2.199205453740433,0,43,366.34433735662606,7,364.1432549690362,6.142857142857143,0.9987963992071739,0.0012036007928260695,-6.72123322879436,1,354.7205584895564,0.7152654650853947,1,58,356.4388706634054,58,355.72234258404933,1.0,0.13643145500817,0.86356854499183,1.8452509474677117,0,375.3677431283286,2.567057223757729,1,56,378.9386762934737,59,376.36972435819916,0.9491525423728814,0.29915452848029267,0.7008454715197073,0.851327165130353
65,1,337.1591265363386,2.083071012981236,0,94,340.2616926141782,46,338.17723296256736,2.0434782608695654,0.8512109773632346,0.1487890226367654,-1.7441306677673332,1,368.8450690092286,1.3142127860337496,1,14,371.18120095320046,57,369.86507251730654,0.24561403508771928,7.016789294078674e-05,0.9999298321070592,9.564549546717053,0,358.94039915362373,1.199015429476276,0,87,361.158991425531,76,359.9584028640529,1.144736842105263,0.45941890354173454,0.5405810964582655,0.1626822277890964,1,381.43821525748353,1.2827185397036374,1,17,383.74132446502335,82,382.4563287948258,0.2073170731707317,0.00010160965340388906,0.9998983903465961,9.194270398699599
66,0,342.7628928088816,2.4500291554722935,0,60,346.23182483320124,40,343.78060891502537,1.5,0.4600956056789698,0.5399043943210302,0.1599577700096352,0,373.68170149519574,1.5325304907746613,1,56,376.21785627375357,59,374.6836831201799,0.9491525423728814,0.2211707516823751,0.7788292483176249,1.2588567931756238,0,363.66000001574866,0.9326915175188333,1,55,365.6117354388116,60,364.6778630845947,0.9166666666666666,0.04682843634948841,0.9531715636505116,3.0133042795625067,0,386.2415721680736,1.5991693451069295,0,62,388.8608378607314,17,387.2600163712632,3.6470588235294117,0.9977174652549804,0.0022825347450196277,-6.080183579560265
67,1,348.7334710514406,1.3492471722420305,1,4,351.10195017803926,22,349.75148582365364,0.18181818181818182,0.10510901244653637,0.8948909875534636,2.1417038838773212,1,378.71845755621325,1.5830702228704467,0,56,381.321790842223,46,379.7367030438036,1.2173913043478262,0.803868121628148,0.19613187837185198,-1.4106479460940387,1,368.1136463478906,1.5325913302367553,1,4,370.66512869496364,22,369.1313083306886,0.18181818181818182,0.012877488097775669,0.9871225119022243,4.339313479072676,1,391.36145889631007,3.5677628023549914,0,46,395.94916831795126,36,392.37962221121415,1.2777777777777777,0.7778140816917818,0.22218591830821818,-1.2529730248258784
68,0,353.60377614898607,2.6491579674184322,1,80,357.27278434101027,60,354.6224301295588,1.3333333333333333,0.20066140389831477,0.7993385961016852,1.3821657009683037,0,383.82190461969003,1.8332803951343521,1,59,386.67498388153035,65,384.83993045345414,0.9076923076923077,0.1337342722131325,0.8662657277868675,1.8683369185826977,1,373.16654933360405,1.1657003479776904,1,28,375.351601339411,82,374.1846217846032,0.34146341463414637,4.772243847872559e-07,0.9999995227756152,14.555278571081871,1,398.45020258717705,1.4331359609495848,1,25,400.9019530224614,37,399.46765242225956,0.6756756756756757,0.17256184931075091,0.8274381506892491,1.5675786431504932
69,0,359.7740682886215,0.7819418502040207,1,87,361.55928163719364,85,360.776071641827,1.0235294117647058,0.012496962017174651,0.9875030379828253,4.369693997065294,0,389.1759182002861,1.766573985456489,1,35,391.9624158915831,62,390.19368803466205,0.5645161290322581,0.0019595298718159126,0.9980404701281841,6.233089243567243,1,377.8525392137235,1.282514293328859,0,82,380.13837754854467,40,378.85461644339375,2.05,0.9996692850163964,0.00033071498360357117,-8.013922860571236,0,403.403542747139,2.0330093044321984,1,24,406.45671674457844,90,404.4216290252516,0.26666666666666666,7.652506240896084e-05,0.999923474937591,9.477815729605636
70,1,364.06032222730573,0.7795584483537823,1,6,365.86119736602996,8,365.0808752650628,0.75,0.5028533598394085,0.49714664016059146,-0.011413563259214752,0,394.4625415208284,2.19971389696002,0,87,397.682388901012,85,395.4808221688727,1.0235294117647058,0.4590063674844663,0.5409936325155337,0.16434342645581937,0,382.63911315170117,1.4491781946271658,0,62,385.0912384997355,16,383.6408123081783,3.875,0.9999464860212202,5.3513978779800496e-05,-9.835514137177,1,408.95806943264324,1.298871785402298,0,74,411.27568685263395,60,409.9750767997466,1.2333333333333334,0.7847511317805406,0.21524886821945943,-1.2935717526265669
71,1,368.36314185522497,1.4832213730551302,0,82,370.8654470349429,40,369.3809954425087,2.05,0.8353740401500156,0.16462595984998446,-1.6242035862553836,1,400.1829388255719,1.9001369280740619,0,97,403.1028544722358,61,401.2009350298904,1.5901639344262295,0.9989302959333273,0.0010697040666727499,-6.839302965356377,0,387.59269666916225,2.3157590540358797,1,7,390.929041550844,54,388.61199183331337,0.12962962962962962,6.6428573608501296e-06,0.9999933571426391,11.921961718730705,1,413.7764805298066,1.6832924050977454,1,50,416.4797626158688,62,414.7946221163729,0.8064516129032258,0.11346912703778522,0.8865308729622148,2.055785159141582
72,1,373.36627389723435,0.8491171972127631,1,69,375.2351101586828,61,374.38453755760565,1.1311475409836065,0.08192649472091285,0.9180735052790872,2.416455019115339,1,405.60332933533937,1.8827538582263514,0,46,408.506649268209,40,406.62175457563717,1.15,0.638162354375694,0.36183764562430604,-0.5673971064426013,1,393.4298933019163,2.099452603724785,0,74,396.5325103426585,60,394.4317568037659,1.2333333333333334,0.7547857345112439,0.24521426548875608,-1.1243015322607695,1,418.98040142911486,1.2490783231332898,1,37,421.24972622282803,54,419.9984248925466,0.6851851851851852,0.07336210801566789,0.9266378919843321,2.536155302964598
73,1,377.736092279898,0.7492940262891352,1,14,379.50458942120895,57,378.75394547206815,0.24561403508771928,0.0018183171980640234,0.998181682801936,6.308023849719762,1,411.0071968224365,2.1336301029659808,1,24,414.16050134797115,69,412.0250492246123,0.34782608695652173,4.756442818898421e-05,0.999952435571811,9.953377817494637,1,399.0333541925065,0.798652131576091,1,55,400.8349171320442,95,400.0352445584722,0.5789473684210527,6.0142106873550816e-06,0.9999939857893126,12.021379426966856,0,423.75030933250673,1.8001430910080671,1,37,426.5702382532181,52,424.7679108710727,0.7115384615384616,0.09600181196237312,0.9039981880376269,2.2424602901092454
74,1,382.0059780598385,1.0668174219317734,1,75,384.0915565236937,70,383.0235408823937,1.0714285714285714,0.03880070631988164,0.9611992936801184,3.209743318446511,0,416.6608521619346,3.201304411748424,0,40,420.86539449193515,15,417.6626860341057,2.6666666666666665,0.9885229457615893,0.01147705423841071,-4.455862096526414,0,403.33680907811504,2.399400139693171,1,12,406.75574181356933,23,404.355001627584,0.5217391304347826,0.05444725488405444,0.9455527451159456,2.8545372392084385,1,429.07018452498596,2.7004163149977103,0,69,432.7743282385636,61,430.07180822477676,1.1311475409836065,0.6248364842227818,0.3751635157772182,-0.5101280172587236
75,0,386.59192788088694,1.2495049887802452,0,78,388.8447114791488,34,387.5938427405199,2.2941176470588234,0.8959546049197353,0.1040453950802647,-2.153062452476167,0,423.3657200220041,3.833349925931543,0,54,428.2026586801512,80,424.3675214991672,0.675,0.0025068965783454633,0.9974931034216545,5.986199669704879,0,409.25680492212996,1.448069654055871,0,78,411.70938182470854,65,410.2600566674955,1.2,0.6700715227753654,0.3299284772246346,-0.7085085618115571,0,435.2746786575299,2.266140208696015,0,28,438.5609693368897,18,436.292874367442,1.5555555555555556,0.8326438350798452,0.1673561649201548,-1.6044817163394616
76,1,391.3452064903686,1.4655740074813366,1,54,393.83040119207,78,392.36361592821777,0.6923076923076923,0.002351199819588423,0.9976488001804116,6.050475551361145,1,430.7033271229593,1.7824107873020694,1,42,433.50641697249375,67,431.7222963619279,0.6268656716417911,0.0029971527517023144,0.9970028472482977,5.807090870535506,0,414.2101399463136,1.733352928305976,1,22,416.96291643357836,31,415.2283261747798,0.7096774193548387,0.060891434475186856,0.9391085655248131,2.7358385749501357,0,441.0615872120252,2.116621945751831,0,77,444.19835765322205,72,442.0798485020641,1.0694444444444444,0.47835339254049947,0.5216466074595005,0.08664058714145326
77,1,396.3317609913647,0.865412664716132,1,24,398.21663988148794,69,397.35003215796314,0.34782608695652173,0.0007433907355730573,0.9992566092644269,7.203545095228236,0,436.0067863542354,1.6832584297517315,0,71,438.7098946135957,64,437.02490186691284,1.109375,0.6958060655806328,0.3041939344193671,-0.8274055399229666,0,419.46405025804415,1.432525592041202,1,38,421.9161752110813,43,420.4822708568536,0.8837209302325582,0.08786216357180665,0.9121378364281933,2.3400218516246123,0,446.69893404690083,2.599437196389772,1,95,450.31872951600235,16,447.7175062497845,5.9375,0.9999704254324986,2.9574567501377663e-05,-10.428566196993033
78,1,400.7180312855635,0.8990177208324894,1,42,402.6362912324257,67,401.7360077368794,0.6268656716417911,0.004238242155110927,0.9957617578448891,5.45935943280049,0,441.210173526546,1.4656427481677383,0,95,443.6957146965433,16,442.2286323469598,5.9375,0.9999998426558608,1.5734413921676315e-07,-15.6648303035808,0,424.4171201963909,2.4154305214760825,0,28,427.83671465865336,18,425.41989115288015,1.5555555555555556,0.8717621935748961,0.12823780642510388,-1.9166302700021203,1,452.81963420531247,1.7662437146063894,1,14,455.6058063664241,57,453.8374538173666,0.24561403508771928,0.0027182623657940885,0.9972817376342059,5.905040475372425
79,0,405.13739621744025,1.3657571576768532,1,7,407.50630477513187,54,406.13932608941104,0.12962962962962962,0.0015794693355176692,0.9984205306644823,6.44908563394227,0,446.1968374593416,1.3827510927803814,0,12,448.59963235643227,3,447.21511652716435,4.0,0.7519606247526138,0.24803937524738623,-1.109096457156668,1,430.33767860697117,0.9990866194711998,0,72,432.35583244042937,51,431.3557601443026,1.411764705882353,0.9528051775411512,0.047194822458848706,-3.0051262591473034,0,458.1092228521593,3.182355715893209,1,28,462.31049842445645,41,459.12637441640254,0.6829268292682927,0.14516828969546447,0.8548317103045355,1.7730109314971005
80,1,417.01328431419097,2.6327080311020836,0,12,420.6649366954807,9,418.0309545932105,1.3333333333333333,0.5880219931551895,0.4119780068448105,-0.35579438404424063,1,458.1228789186571,2.182781196432188,1,52,461.3253665374359,68,459.14036667963956,0.7647058823529411,0.01913140192395335,0.9808685980760466,3.937107438857295,0,441.86283884360455,1.2994861049810424,1,15,444.1811112744035,42,442.88034082681406,0.35714285714285715,0.0008315983884126243,0.9991684016115874,7.091328995559881,0,471.83348543173634,4.467752767726779,1,45,477.3206826966489,60,472.8508037116844,0.75,0.08327292181421808,0.9167270781857819,2.3986863752263945
81,1,423.16638222290203,2.6667401479789987,0,41,426.85294889169745,7,424.18485684576444,5.857142857142857,0.9522141653888836,0.047785834611116414,-2.9920607246044515,1,463.82517572306097,0.8990469552809373,1,37,465.7281132370699,54,464.82719013805036,0.6851851851851852,0.015138630427890098,0.9848613695721099,4.1752511063076465,0,446.68226761731785,2.683390775229782,1,45,450.3852850126568,60,447.7005593270296,0.75,0.005535670411366156,0.9944643295886338,5.1909915489432,1,479.8206728200894,3.8347425151150674,0,33,484.6751723254565,25,480.8388345547719,1.32,0.7708550181588195,0.22914498184118046,-1.213145400285891
82,1,429.3538437044481,1.0485794403357431,1,50,431.4054722239962,62,430.3556538729463,0.8064516129032258,0.016310033774835864,0.9836899662251641,4.0995302849951125,0,468.22855056938715,1.650634309509769,0,9,470.8820664524101,7,469.2303228121018,1.2857142857142858,0.4170516287061492,0.5829483712938508,0.33488860148984373,1,452.88628965220414,1.4320602103834972,0,97,455.3380286308238,61,453.90475716406945,1.5901639344262295,0.9972007726008709,0.0027992273991290805,-5.875608676196022,0,487.175503781531,1.9829472010023892,0,60,490.1784560708329,40,488.1937935159076,1.5,0.9204189128270917,0.07958108717290835,-2.448052440147636
83,1,433.9066135546891,0.9656625011703,1,3,435.87557678867597,18,434.9086200684542,0.16666666666666666,0.16057344225794612,0.8394265577420539,1.6539675672858114,0,473.3831564250868,1.164173042983748,1,7,475.55089686694555,54,474.3848050137749,0.12962962962962962,3.039381722980128e-05,0.9999696061827702,10.401240956556247,1,457.8393998867832,1.0160588261205703,1,40,459.87437738419976,93,458.85744349844754,0.43010752688172044,3.83792588709575e-07,0.9999996162074113,14.773163180059521,0,492.6793184884591,1.682727863197215,0,80,495.38200126728043,60,493.69748496392276,1.3333333333333333,0.8867019780033905,0.1132980219966095,-2.0574872273547657
84,1,438.37674695882015,1.1484654258238152,0,32,440.5449824118987,16,439.3952512112446,2.0,0.7275641049988344,0.27243589500116566,-0.9822987732743996,1,478.0519184941659,0.9320084573701024,1,50,480.00430221203715,62,479.0702591914451,0.8064516129032258,0.042285951982996006,0.957714048017004,3.1200943184418577,1,462.3761444911361,1.1654368423623964,1,54,464.56136321253143,78,463.39461318810936,0.6923076923076923,0.0003842636296051971,0.9996157363703948,7.863797368026196,0,497.8826720805373,2.2665850471239537,1,22,501.16903821658343,31,498.9008014203282,0.7096774193548387,0.25569770765521194,0.7443022923447881,1.0684513419485329
85,0,443.04609095246997,3.784231227473356,1,77,447.85061566275544,72,444.06502542609815,1.0694444444444444,0.034490763275925373,0.9655092367240746,3.331964111542382,1,482.5047636430245,0.814800241496414,1,28,484.340348427766,82,483.5235278455075,0.34146341463414637,7.559102166543319e-06,0.9999924408978335,11.79275057673399,1,467.06216716126073,0.7487563486211002,1,88,468.8141507614637,96,468.06412034179084,0.9166666666666666,0.006105840110579908,0.9938941598894201,5.092385013656953,1,503.67146626021713,2.19879498553928,0,12,506.8732585719554,9,504.67341865063645,1.3333333333333333,0.708684041541489,0.291315958458511,-0.8890013415800218
86,1,450.35096292116214,2.650475100148469,0,74,454.00452818674967,60,451.3527485958766,1.2333333333333334,0.13368582640614424,0.8663141735938558,1.8687551617678546,1,486.8411871418357,0.9492382437456399,0,74,488.81027956085745,60,487.859213765827,1.2333333333333334,0.9064797413254357,0.09352025867456423,-2.271390598569478,0,471.31624418869615,2.382872771471739,0,9,474.71772985428106,7,472.33355338219553,1.2857142857142858,0.6479713208349278,0.3520286791650722,-0.6101337902221005,1,509.37387091619894,1.4826441892655566,1,43,511.87672167492565,97,510.3920476632193,0.44329896907216493,0.0003075139315623643,0.9996924860684376,8.086682604626448
87,0,456.5056766284397,1.3157420663628727,1,7,458.8407466490753,54,457.5237103635445,0.12962962962962962,0.0015794693355176692,0.9984205306644823,6.44908563394227,0,491.31022899306845,1.1324287230381742,0,62,493.44671815098263,17,492.3120277047856,3.6470588235294117,0.9998179223009578,0.00018207769904217825,-8.610894949899595,1,477.2190619992325,2.466626054374501,0,54,480.7052577850409,31,478.23736595583614,1.7419354838709677,0.9856953220128377,0.014304677987162274,-4.232760687068018,1,514.3771902170265,1.2157687725266442,1,15,516.5967116719112,56,515.3790363360895,0.26785714285714285,0.0035726318137487834,0.9964273681862512,5.630873723156666
88,1,461.3416078815935,1.7160721791442484,0,33,464.06091442343313,25,462.3435136548942,1.32,0.44609018529613986,0.5539098147038601,0.2164807433897351,0,495.946976125706,1.3156867577927187,1,58,498.2828149345005,58,496.9653219587635,1.0,0.34559829556608745,0.6544017044339125,0.6384442847535455,0,483.20654726342764,1.431950778583996,0,62,485.64187383651733,17,484.20867901155725,3.6470588235294117,0.9999307792430705,6.922075692951605e-05,-9.578140561536705,1,519.0972758188145,1.1155805655289441,1,42,521.2331652743742,67,520.1154280720511,0.6268656716417911,0.021698459952259608,0.9783015400477404,3.8085766575842244
89,0,466.5616377798142,1.7996658575721085,0,86,469.3645344445249,59,467.5634372816421,1.4576271186440677,0.32008796080205404,0.679912039197946,0.7533676001542279,1,500.78348614287097,1.1156228369800374,0,33,502.9192128335126,25,501.8016620997805,1.32,0.7210479923874076,0.27895200761259237,-0.9496659474143155,1,488.1428326490568,3.41709293727763,0,45,492.5631682453677,40,489.14484982949216,1.125,0.4891217078627488,0.5108782921372512,0.04352003613725258,0,523.7337914457312,1.882854993804358,1,53,526.636182590737,57,524.7515786628937,0.9298245614035088,0.28098319040858655,0.7190168095914135,0.9395898896390986
90,1,471.86652831640095,1.3825093155028298,1,37,474.26782711816486,54,472.8840168674942,0.6851851851851852,0.017703369705578176,0.9822966302944218,4.0161383299446,0,505.419599993038,1.1157200220040977,0,41,507.5394547212636,22,506.42148048244417,1.8636363636363635,0.9617999430321701,0.0382000569678299,-3.225969462697263,1,495.06488833995536,0.7494615322211757,1,43,496.8329114083899,97,496.08275733469054,0.44329896907216493,2.634633508025175e-07,0.9999997365366492,15.149351301313436,1,529.137262291857,2.0822164964629337,1,43,532.2230189280817,93,530.1391676700441,0.46236559139784944,0.0005531696061443769,0.9994468303938556,7.499292578915886
91,0,476.7686188200023,1.8161805839044973,0,51,479.6042209875304,7,477.78691408527084,7.285714285714286,0.9781837655443716,0.021816234455628403,-3.803043159270369,0,510.0401606949745,2.4169179253512993,1,45,513.4765768456273,60,511.0579755662475,0.75,0.02304332296942424,0.9769566770305758,3.7470662566729294,1,499.33430518291425,0.6979013580130413,1,15,501.05257231986616,56,500.3532744218828,0.26785714285714285,2.2667424182443163e-05,0.9999773325758176,10.694559054519946,0,534.7238987284945,1.6996921686222777,1,55,537.4438274911372,60,535.7422876232304,0.9166666666666666,0.244993640866488,0.755006359133512,1.1254939173460619
92,0,482.1058462675428,2.8170351004227996,0,28,485.9418541624909,18,483.1236054353649,1.5555555555555556,0.5923016579864924,0.4076983420135076,-0.37348851937898186,1,515.9771528443089,3.0669975695200264,0,53,520.063952440978,40,516.9951300856192,1.325,0.8828942513412268,0.11710574865877323,-2.020128071501113,1,503.55315424432047,1.5659581646323204,0,53,506.12234716676176,40,504.5550900422968,1.325,0.8453556914855419,0.15464430851445807,-1.6986297793672855,0,539.944252181449,1.8324630144052207,0,62,542.780808815849,16,540.9465214107186,3.875,0.9980285864300549,0.001971413569945165,-6.227031085987941
93,1,488.443338405923,2.149221967207268,1,97,491.5955256994348,61,489.4451995373238,1.5901639344262295,0.463638255857883,0.536361744142117,0.14570420205076923,0,522.5644837977597,2.232786016073078,1,15,525.8011410145555,42,523.5664282869548,0.35714285714285715,0.0018758443862234575,0.9981241556137765,6.276818775627263,1,508.623458472779,0.8489978888537735,1,14,510.4923769069137,57,509.64198247820605,0.24561403508771928,1.4094647369344848e-05,0.9999859053526307,11.16970135710246,0,545.2813682218548,1.0631216281326488,0,86,547.3670972038526,59,546.3019303459441,1.4576271186440677,0.9511189904818644,0.04888100951813558,-2.9682502085106406
94,1,494.09943087538704,2.2998981532873586,0,58,497.41640553146135,6,495.11528229457326,9.666666666666666,0.9891527749629552,0.01084722503704488,-4.512939503551036,0,528.3054459920386,1.2156601308379322,1,38,530.5376062318683,43,529.3202232409967,0.8837209302325582,0.15330561336740267,0.8466943866325973,1.7089064088403463,0,512.9956203560578,2.417022221372463,1,60,516.4292967601214,61,514.011060516932,0.9836065573770492,0.10139368432450402,0.898606315675496,2.181834220512467,1,549.8676321161911,2.032578688231297,0,66,552.9042246220633,59,550.8694620378083,1.11864406779661,0.6039295117671367,0.3960704882328633,-0.42186529274997886
95,0,499.91775900975335,1.498888298869133,1,37,502.43642049632035,52,500.936197682051,0.7115384615384616,0.02339131945799533,0.9766086805420047,3.731721049915546,0,533.038562673959,0.831698176683858,1,7,534.8907475181622,54,534.0571913706372,0.12962962962962962,3.039381722980128e-05,0.9999696061827702,10.401240956556247,1,518.9300758200698,1.5657918440410867,1,52,521.4989459777717,68,519.9320096425945,0.7647058823529411,0.003250796754120544,0.9967492032458795,5.725599065499075,0,555.404460868449,2.8001640293514356,0,68,559.20847871562,63,556.406558246119,1.0793650793650793,0.5222637081086232,0.47773629189137673,-0.08911375861533656
96,1,504.937768838834,2.116886636475101,1,10,508.07393404690083,44,505.9561869680183,0.22727272727272727,0.008295561513992245,0.9917044384860078,4.783704503397318,1,537.3910043077776,1.4491461946163327,1,87,539.8441943445941,89,538.3931542285718,0.9775280898876404,0.27175640608574236,0.7282435939142576,0.985729500077256,1,524.0002907647286,1.2653927536448464,0,12,526.2689265724039,9,525.0021921923617,1.3333333333333333,0.67889380445707,0.3211061955429299,-0.7486928197557103,1,561.7086853324436,1.2490190640091896,1,28,563.9612808818929,82,562.7103520939127,0.34146341463414637,0.0004121303355103523,0.9995878696644896,7.7937586950316735
97,1,510.576307177078,1.9331462326226756,1,72,513.5271620096173,51,511.5927579035051,1.411764705882353,0.3205873509199243,0.6794126490800757,0.7510738885703108,0,542.3444084675284,1.6997869833139703,0,50,545.0477976150578,7,543.3461107845651,7.142857142857143,0.9997181811452377,0.00028181885476230025,-8.173964193852873,1,528.7699059280567,1.9324363082414493,0,14,531.7057211913634,8,529.7720708613051,1.75,0.8087028938227946,0.19129710617720538,-1.441603849272141,1,566.461883349577,2.416776098543778,0,94,569.8826333645266,46,567.4636409750674,2.0434782608695654,0.9972566319451711,0.002743368054828871,-5.8958217583747015
98,0,516.0286182037089,1.2159343028906733,1,59,518.2641012999229,65,517.0468593456317,0.9076923076923077,0.02196120146600089,0.9780387985339991,3.7962720138393578,1,547.5480864045676,0.8983188583515584,1,25,549.4675287683494,37,548.5674716425128,0.6756756756756757,0.04012681997592149,0.9598731800240785,3.1747562335168595,0,534.2074602489593,1.8831935608759522,1,60,537.1097474929411,70,535.2251368490979,0.8571428571428571,0.011006558243990883,0.9889934417560091,4.49819640127513,1,572.382998400717,2.3833239309024066,0,53,575.7862578893546,40,573.401070456719,1.325,0.8258962421221869,0.17410375787781313,-1.5568177196314035
99,1,520.7651241122512,1.4663163267541677,0,43,523.2507225661539,93,521.783060662332,0.46236559139784944,0.00011440105725601946,0.999885598942744,9.075685829711304,1,551.9672008678317,0.8159186586271971,1,54,553.7864937406266,78,552.9688948885305,0.6923076923076923,0.0037752486692517184,0.9962247513307483,5.575506632894168,1,539.6108990951907,1.5826514583313838,1,26,542.2132150995312,84,540.6292816688074,0.30952380952380953,1.8450978112038996e-07,0.9999998154902189,15.505563176158578,1,578.2867572461255,1.9496854525059462,1,24,581.2560444300761,69,579.3046333519742,0.34782608695652173,0.0016687370009854652,0.9983312629990145,6.394018094624202
