,self_acceptUp,self_cue_times,self_decision_times,self_decisions,self_punishment_values,self_response_times,self_reward_values,self_trial_times,self_punishment_reward_ratio,self_prob_reject,self_prob_accept,self_SV,harm_other_acceptUp,harm_other_cue_times,harm_other_decision_times,harm_other_decisions,harm_other_punishment_values,harm_other_response_times,harm_other_reward_values,harm_other_trial_times,harm_other_punishment_reward_ratio,harm_other_prob_reject,harm_other_prob_accept,harm_other_SV,harm_self_acceptUp,harm_self_cue_times,harm_self_decision_times,harm_self_decisions,harm_self_punishment_values,harm_self_response_times,harm_self_reward_values,harm_self_trial_times,harm_self_punishment_reward_ratio,harm_self_prob_reject,harm_self_prob_accept,harm_self_SV,other_acceptUp,other_cue_times,other_decision_times,other_decisions,other_punishment_values,other_response_times,other_reward_values,other_trial_times,other_punishment_reward_ratio,other_prob_reject,other_prob_accept,other_SV
0,1,0.003934807027690113,2.0062004815554246,1,54,3.0373202225891873,78,1.0289978686487302,0.6923076923076923,0.0007195389797022278,0.9992804610202978,7.236180059034599,1,0.00401618960313499,1.3407017467543483,1,15,2.3701088984962553,19,1.0272675016894937,0.7894736842105263,4.108091644638989e-11,0.9999999999589191,23.915477422254384,1,0.0037455727579072118,2.259158401633613,1,54,3.286555878352374,31,1.0261526396498084,1.7419354838709677,0.21947527654861465,0.7805247234513853,1.2687268250233783,0,0.0045815217308700085,1.6406462406739593,1,59,2.6702493426855654,65,1.0274638469563797,0.9076923076923077,0.060193858321953675,0.9398061416780463,2.7481032958576055
1,0,5.53739113593474,0.9156450061127543,1,60,7.456736282911152,70,6.5390970091102645,0.8571428571428571,0.0031466173127526753,0.9968533826872473,5.75827569379973,1,4.8700889479368925,1.7664439181098714,0,87,7.639995575300418,89,5.8716715620830655,0.9775280898876404,0.9186535546872912,0.08134644531270888,-2.4241919340339457,1,5.787735727848485,0.7654084633104503,1,42,7.572439362993464,39,6.805839790846221,1.0769230769230769,0.006612608234397688,0.9933873917656023,5.012142545389757,0,5.170570724760182,1.3495096305850893,0,62,7.540225698263384,16,6.188840318354778,3.875,0.991031763264758,0.008968236735242031,-4.705057502350694
2,1,9.957019739202224,1.049277532263659,1,69,12.02658325608354,61,10.975339110358618,1.1311475409836065,0.01950199831986199,0.980498001680138,3.917543669311416,1,10.14039201894775,0.9339671428315341,1,4,12.093801691196859,22,11.158543884404935,0.18181818181818182,5.329070518200751e-15,0.9999999999999947,32.865599558769205,1,10.073651607497595,1.6822516893735155,0,58,12.776001232559793,6,11.092505891341716,9.666666666666666,0.9839647070907233,0.016035292909276744,-4.116797929782008,1,10.040792808285914,1.1496842475607991,1,25,12.209888770594262,37,11.058384872274473,0.6756756756756757,0.027787416419353894,0.9722125835806461,3.5549912164996815
3,0,14.528538610204123,0.715681746834889,1,53,16.262992863194086,57,15.545268256217241,0.9298245614035088,0.009171329860286237,0.9908286701397138,4.682459334865186,0,14.593508753576316,1.2159920672420412,0,78,16.82979944732506,34,15.611730544711463,2.2941176470588234,0.9999998538390575,1.4616094250005433e-07,-15.738557330323427,0,15.277286958415061,2.7839419576339424,1,40,19.06397814513184,15,16.27916310285218,2.6666666666666665,0.2803930923135445,0.7196069076864555,0.942512581631,1,14.710201461333781,0.8996142230462283,1,54,16.629816829925403,78,15.728132487623952,0.6923076923076923,0.0048602472794876395,0.9951397527205124,5.32179386512016
4,1,18.762901801615953,1.4329595399321988,1,98,21.199241087888367,73,19.76466930436436,1.3424657534246576,0.04202067163589973,0.9579793283641003,3.12666452082125,0,19.32973485486582,1.11618189397268,1,38,21.44975555606652,43,20.331566357403062,0.8837209302325582,1.0286106111312421e-07,0.9999998971389389,16.089886577700746,0,21.56501142703928,1.0314270984381437,1,59,23.600028839427978,65,22.56733438547235,0.9076923076923077,0.0013240235480642681,0.9986759764519357,6.625755135236752,1,19.130225915578194,0.9986824716906995,0,82,21.132584824459627,40,20.131869764183648,2.05,0.983694637204854,0.016305362795146074,-4.099821461307347
5,0,23.69971219811123,0.9492721989518031,1,37,25.652677031699568,52,24.701336293597706,0.7115384615384616,0.0048592496137638275,0.9951407503862362,5.322000159297702,1,23.95016622194089,1.1825560838915408,0,98,26.15230429172516,73,24.96810356923379,1.3424657534246576,0.9999998911601262,1.0883987378803038e-07,-16.033387973802316,1,26.104312682757154,0.8489697797922418,1,3,27.969502084888518,18,27.119333295035176,0.16666666666666666,0.00020951502759314344,0.9997904849724069,8.470505553440816,1,23.63279282406438,1.2992250879760832,1,12,25.952286118874326,9,24.651140244677663,1.3333333333333333,0.2005008454095777,0.7994991545904223,1.3831670116062322
6,0,28.152904389309697,0.9654147843830287,1,68,30.13954105763696,63,29.17201901820954,1.0793650793650793,0.014099108145045114,0.9859008918549549,4.247444290931379,1,28.652670315699652,1.3994319023331627,1,33,31.056034654728137,25,29.654468633118086,1.32,1.8482011653331298e-06,0.9999981517988347,13.201295886766514,0,30.471732796519063,2.100079604773782,0,87,33.59033838938922,85,31.488985503208824,1.0235294117647058,0.006337386002766787,0.9936626139972332,5.054931345475298,0,28.452888389350846,1.8161686594830826,1,45,31.289466292364523,60,29.471199859282933,0.75,0.01769175874210982,0.9823082412578902,4.0168062270417995
7,1,32.639163971995,0.7988001998746768,1,43,34.44156357215252,93,33.64083547482733,0.46236559139784944,4.5970577731924145e-05,0.9999540294222681,9.987463009004792,1,33.556134407641366,1.1656834258465096,0,82,35.72535046841949,40,34.55775929335505,2.05,0.9999999278012549,7.2198745130722e-08,-16.44384309946084,0,36.09117967169732,1.198770965449512,0,86,38.29299576685298,59,37.09303803835064,1.4576271186440677,0.3950049353632824,0.6049950646367176,0.42632204095865417,0,33.78938747767825,0.9992000015918165,1,53,35.79196762072388,57,34.791026585618965,0.9298245614035088,0.07930733522952271,0.9206926647704773,2.451795659143614
8,1,36.941866386448964,0.9820824057096615,1,4,38.944627467310056,22,37.96056067047175,0.18181818181818182,0.015176176169676814,0.9848238238303232,4.172735925114623,1,38.225695159169845,2.333779093809426,1,66,41.5626738514984,59,39.227160835289396,1.11864406779661,0.13977523346832388,0.8602247665316761,1.8171580543054582,0,40.794544998323545,0.965733993682079,1,38,42.77953742304817,43,41.81261982687283,0.8837209302325582,0.0014907622825598432,0.9985092377174402,6.5069758162392555,1,38.29285631037783,0.7825940096518025,0,26,40.09541116957553,84,39.31102674361318,0.30952380952380953,3.8921057210816734e-05,0.9999610789427892,10.153936215510692
9,0,41.44505196029786,0.9992841494968161,1,22,43.4646086624125,31,42.46331049222499,0.7096774193548387,0.0203046330063531,0.9796953669936469,3.87639258641237,0,44.06315641850233,1.182659589801915,0,62,46.249151112744585,17,45.06484530400485,3.6470588235294117,0.9999696883762673,3.0311623732663458e-05,-10.403948985389693,0,45.28065840853378,0.8983069662936032,1,7,47.19914864364546,54,46.29968612396624,0.12962962962962962,5.649583815214854e-07,0.9999994350416185,14.386513204578455,1,42.59567803319078,2.4498404941987246,1,3,46.06548056192696,18,43.61385715776123,0.16666666666666666,0.018880822805044217,0.9811191771949558,3.9505471970611157
10,1,45.96471197088249,0.9661199680995196,1,45,47.95046409778297,40,46.98263667628635,1.125,0.039761043090413506,0.9602389569095865,3.1842945508229574,1,48.74960523529444,1.0658546847989783,1,42,50.81928648042958,39,49.75126686168369,1.0769230769230769,7.550145752710513e-06,0.9999924498542473,11.793936139720655,0,49.70012464164756,0.8825258617289364,1,28,51.58555064571556,18,50.70178231736645,1.5555555555555556,0.022763436101260748,0.9772365638987393,3.759573186769776,0,48.56614564708434,1.2832871441496536,0,87,50.8694173443364,76,49.58491341245826,1.144736842105263,0.41238406185071785,0.5876159381492821,0.35411846399044783
11,0,50.45109757804312,1.2324736148584634,0,95,52.7032657712698,16,51.46914712258149,5.9375,0.9777355631980024,0.022264436801997654,-3.782248604959088,0,53.31986109656282,0.9828227499965578,0,95,55.322528548073024,16,54.33789720910136,5.9375,0.9999999999999988,1.2012506652262785e-15,-34.35541315983009,0,54.08627538511064,1.2661521655973047,0,78,56.355401174514554,34,55.0880365667399,2.2941176470588234,0.9369058757837814,0.06309412421621866,-2.6979551778445092,0,53.369480751571245,1.1492149151163176,0,40,55.5389496514108,15,54.3877791846171,2.6666666666666665,0.8491465528508664,0.15085344714913368,-1.7279229727670844
12,0,55.20372700493317,1.4994597540935501,1,54,57.70690981345251,80,56.20573075406719,0.675,0.0005600469462787583,0.9994399530537212,7.486929741277051,1,57.822367955814116,1.1990040512755513,1,16,60.04167655960191,10,58.840968610486016,1.6,2.126138820557344e-09,0.9999999978738612,19.968958260438953,1,58.85637322196271,1.5662045112112537,0,41,61.42546839406714,7,59.8580735642463,5.857142857142857,0.6743866326081576,0.3256133673918425,-0.7280928974000054,0,58.039285650709644,0.9490596562391147,1,7,60.0083187983837,54,59.05751218262594,0.12962962962962962,0.000194218878605823,0.9998057811213942,8.546330556907908
13,0,60.20776413276326,1.5653191796736792,1,28,62.776651107822545,18,61.20963790686801,1.5555555555555556,0.14534172515783073,0.8546582748421693,1.771614015571227,1,62.54218915128149,0.8988470146432519,1,10,64.44462687475607,44,63.54386460466776,0.22727272727272727,2.220446049250313e-16,0.9999999999999998,36.04365338911715,1,63.926890811068006,1.0991907176794484,1,56,66.04525620688219,46,64.94484356569592,1.2173913043478262,0.024821324189783778,0.9751786758102162,3.670917581372467,0,62.50882309360895,1.4993001495022327,0,78,65.01162269304041,65,63.510514744673856,1.2,0.48673360459254844,0.5132663954074516,0.05307803942069555
14,1,65.27726483496372,1.7334278845228255,1,37,68.01427276188042,54,66.27884823922068,0.6851851851851852,0.0037856311474976367,0.9962143688525024,5.572749841540227,0,66.94525442912709,1.4327394908759743,1,71,69.39815111481585,69,67.96349597338121,1.0289855072463767,0.1378554815480294,0.8621445184519706,1.8332170101637437,0,68.54617334087379,1.1993252359097824,0,53,70.76502762455493,15,69.56448639102746,3.533333333333333,0.8186417561475197,0.18135824385248037,-1.5071722490380743,1,67.51210407481994,1.3827129229903221,1,75,69.89853136090096,70,68.51384036766831,1.0714285714285714,0.23223863936375844,0.7677613606362416,1.1957134955747897
15,0,70.51434446545318,1.4655903888633475,1,6,72.98375035310164,26,71.51647107850295,0.23076923076923078,0.01081514871990219,0.9891848512800978,4.5159334108448705,1,71.8984175833175,1.095357836340554,1,43,74.00085570197552,97,72.90364661009517,0.44329896907216493,1.3988810110276972e-14,0.999999999999986,31.90051866272561,0,73.26600836333819,0.7826556392246857,1,9,75.06793112505693,7,74.28404684632551,1.2857142857142858,0.004957417800730668,0.9950425821992693,5.301900531939268,0,72.39887131087016,1.4490128414472565,0,78,74.86824085284024,34,73.41721991659142,2.2941176470588234,0.9877870938182824,0.012212906181717527,-4.392973906117496
16,1,75.48432654945645,1.3163430788554251,1,75,77.80431722605135,70,76.48599844740238,1.0714285714285714,0.010241512950338039,0.989758487049662,4.571011603138308,0,76.50432809023187,1.7498118521180004,0,71,79.271684599109,64,77.51967778825201,1.109375,0.49052996372671887,0.5094700362732811,0.03788467560366374,1,77.56894070329145,0.6329251694260165,1,37,79.22108361264691,54,78.58707202551886,0.6851851851851852,0.00016108869145181615,0.9998389113085482,8.733394364407378,0,77.36876490118448,1.1161171039566398,1,54,79.48819577635732,80,78.37032776232809,0.675,0.0036526757812523902,0.9963473242187476,5.6086359261226475
17,0,80.30451850953978,1.4332613664446399,0,50,82.75755978748202,7,81.32217536354437,7.142857142857143,0.7939382658327716,0.20606173416722845,-1.3488299030662332,0,81.77187324070837,1.179219794110395,1,9,83.97443639615085,7,82.79342776606791,1.2857142857142858,4.1880277024120005e-11,0.9999999999581197,23.89620611519465,1,81.72175383346621,0.698993977275677,1,19,83.42369812598918,37,82.72353634855244,0.5135135135135135,0.00012643468347472986,0.9998735653165253,8.975658276635253,1,81.98856575088575,1.7992347669787705,0,72,84.79148446128238,51,82.99050431500655,1.411764705882353,0.7509631640511333,0.24903683594886672,-1.1037557803006848
18,1,85.25744344200939,1.1991672115400434,1,15,87.4606754357228,19,86.25937687035184,0.7894736842105263,0.05088551764636273,0.9491144823536373,2.9259510685990846,0,86.47458039585035,1.4494478035485372,1,12,88.92804833967239,23,87.47651145374402,0.5217391304347826,1.1439738045737613e-12,0.999999999998856,27.496513121331823,1,85.92447501327842,0.6486067188670859,1,24,87.57592617091723,69,86.92609318299219,0.34782608695652173,8.63609269874388e-07,0.9999991363907301,13.962144540763003,1,87.29206697863992,1.299739852314815,1,14,89.61193202575669,57,88.30997430125717,0.24561403508771928,0.0003408627932570685,0.9996591372067429,7.983689606566467
19,0,89.96070842328481,1.266205103835091,1,14,92.23008073063102,7,90.96225390164182,2.0,0.1823354693722442,0.8176645306277558,1.5006039145212242,0,91.42821564793121,1.3661697458010167,1,45,93.79776869574562,92,92.42982512630988,0.4891304347826087,3.503863865716994e-13,0.9999999999996496,28.679739887710987,0,90.07737624214496,0.6822635412681848,1,35,91.76241469150409,62,91.07893080695067,0.5645161290322581,2.510453017745551e-05,0.9999748954698225,10.592437138109132,0,92.11185755673796,1.5329573670169339,1,45,94.64807812718209,42,93.11344728199765,1.0714285714285714,0.19228545802572017,0.8077145419742798,1.4352276780196243
20,0,101.75333382049575,1.2158707834314555,1,14,103.98830817115959,57,102.77035344124306,0.24561403508771928,0.0004223110750327663,0.9995776889249672,7.769345970585043,0,103.32073536643293,1.5823486768640578,1,54,105.92185654945206,80,104.33797345589846,0.675,1.6226703536403875e-08,0.9999999837732965,17.936607569101565,0,101.27083205757663,1.5658410551259294,1,77,103.85389500460587,72,102.28676131006796,1.0694444444444444,0.010657454860165672,0.9893425451398343,4.530780992552074,1,104.17108311876655,3.183461168431677,1,14,108.37394810083788,8,105.18876012088731,1.75,0.27766791968884286,0.7223320803111571,0.956059112006378
21,0,106.48854896088596,1.4494201493216679,0,7,108.95773875014856,54,107.50664828310255,0.12962962962962962,0.0003534984053169543,0.999646501594683,7.9472780228632285,1,108.42321654676925,1.5664561650482938,1,55,111.00960393168498,95,109.44108594348654,0.5789473684210527,1.5191758961918822e-10,0.9999999998480824,22.607682915517557,1,106.35486784216482,0.9323339607799426,1,75,108.3067687767325,70,107.37318444799166,1.0714285714285714,0.010590891812047976,0.989409108187952,4.5371135357947345,0,110.87428370502312,1.5667809051228687,0,86,113.44485561503097,59,111.87612903479021,1.4576271186440677,0.874593157139196,0.12540684286080392,-1.9421956199811843
22,1,111.45836630440317,1.0657736972207204,1,58,113.5441340362886,58,112.47657979931682,1.0,0.011984556345910335,0.9880154436540897,4.412079479099298,1,113.50965943769552,0.999049088335596,1,6,115.5290095229866,8,114.52806769765448,0.75,3.424593941758758e-12,0.9999999999965754,26.400038208390118,1,110.80774556484539,0.6318739124108106,1,54,112.44276495254599,78,111.80960432661232,0.6923076923076923,4.647893363296518e-05,0.999953521066367,9.976464908162132,1,115.94445561582688,1.0660131041659042,1,87,118.03039875475224,89,116.96264303673524,0.9775280898876404,0.09809331334281168,0.9019066866571883,2.2185918605064634
23,0,116.04472366475966,0.7654930064454675,1,45,117.81416609545704,60,117.04645679704845,0.75,0.003362201739856685,0.9966377982601433,5.691791373248399,0,118.02954226266593,1.1494875071803108,0,78,120.1988914590329,65,119.04740454838611,1.2,0.9901217921668336,0.009878207833166433,-4.607496856050947,0,114.9439878637204,0.6819174678530544,1,7,116.62875293078832,54,115.94563250243664,0.12962962962962962,5.649583815214854e-07,0.9999994350416185,14.386513204578455,1,120.530707889935,2.2997390622040257,1,56,123.83473178325221,46,121.5329510460142,1.2173913043478262,0.3896855890794022,0.6103144109205978,0.44863401998213076
24,0,120.31431602104567,1.466512461192906,1,86,122.8009568376001,59,121.33224704733584,1.4576271186440677,0.0893800590120789,0.9106199409879211,2.3212280176525613,1,122.69935032224748,0.8324898122809827,1,28,124.55160542891826,82,123.71733981755096,0.34146341463414637,0.0,1.0,inf,0,119.1301492737839,0.5151124639669433,1,37,120.66470584739,52,120.14842479315121,0.7115384615384616,0.0002333232635338689,0.9997666767364661,8.362852318316015,0,126.33479874604382,2.0997738275909796,1,87,129.43807755433954,85,127.33658560668118,1.0235294117647058,0.1617983715220347,0.8382016284779653,1.6449077385015358
25,0,125.30098508438095,0.7321913437917829,1,28,127.03693187760655,41,126.30266211810522,0.6829268292682927,0.009422054781590417,0.9905779452184096,4.655235361360536,0,127.05187031731475,1.6163093011127785,0,53,129.6718797592912,15,128.05346715368796,3.533333333333333,0.990876999305134,0.009123000694866096,-4.6877916353423466,0,123.1660575484857,1.1494053344940767,0,62,125.33455815387424,17,124.18405138945673,3.6470588235294117,0.9444104614723394,0.05558953852766062,-2.8325658549487045,1,131.93872170126997,1.4826487256214023,1,6,134.424800741137,8,132.94018698227592,0.75,0.10999358854913266,0.8900064114508673,2.0908065884008664
26,0,129.5378881226061,1.131694752140902,1,87,131.67302780633327,76,130.53952367499005,1.144736842105263,0.012450702410115921,0.9875492975898841,4.373449377336784,1,132.1718258333858,2.5337897604331374,1,42,135.7092307965504,67,133.1736450891476,0.6268656716417911,3.2480462763828655e-10,0.9999999996751954,21.847797259762896,0,127.83648506365716,0.9321751462994143,0,95,129.78773177729454,16,128.85427860880736,5.9375,0.9999025688942924,9.743110570760754e-05,-9.236267602000336,1,136.92524617235176,1.0490073105320334,1,10,138.97784379683435,44,137.92705515644047,0.22727272727272727,0.0012459752773860133,0.998754024722614,6.686589948248023
27,1,134.17336025007535,1.7504723941674456,1,17,136.92728468682617,82,135.17517160461284,0.2073170731707317,2.3317940883282873e-05,0.9999766820591167,10.666264180483243,1,138.20919425343163,2.5503673079656437,1,53,141.76341301051434,55,139.2109396327287,0.9636363636363636,6.283930010231309e-05,0.9999371606998977,9.674867041137809,1,132.29144436249044,1.2163523627677932,1,66,134.5245208403794,59,133.3069548504427,1.11864406779661,0.014845993727639839,0.9851540062723602,4.195067934295697,1,141.47827856137883,0.8657989811617881,1,52,143.3476820786018,68,142.48000023700297,0.7647058823529411,0.015198094835575549,0.9848019051644245,4.17127042920648
28,1,139.4284029068658,0.9829618114745244,1,72,141.43003095302265,51,140.44543437939137,1.411764705882353,0.08118588433995888,0.9188141156600411,2.426342439966381,0,144.26350881287362,1.2991587177384645,1,14,146.5662598197814,57,145.26539364864584,0.24561403508771928,0.0,1.0,inf,0,137.0254134805873,0.8160457954509184,1,71,138.86082318844274,69,138.04343458078802,1.0289855072463767,0.006026215136902602,0.9939737848630974,5.105591691416621,1,145.8479449916631,1.4162239680299535,1,46,148.26786752021872,40,146.8495686921524,1.15,0.26765709622919576,0.7323429037708042,1.0065421824678493
29,1,143.93060043337755,1.8991148659260944,0,94,146.8332368725678,46,144.93241139268503,2.0434782608695654,0.4854672025399619,0.5145327974600381,0.0581475680565645,0,149.06675384345,1.433221465209499,1,60,151.50341075868346,40,150.0683913710527,1.5,0.6716325117284011,0.3283674882715989,-0.7155779611085825,0,141.36158545850776,0.7158243638696149,1,68,143.08038818684872,63,142.36340668948833,1.0793650793650793,0.010361143918658833,0.9896388560813412,4.559277437144074,0,150.76766702684108,1.4161066348897293,1,6,153.18777957966086,26,151.76952223305125,0.23076923076923078,0.009263330411691806,0.9907366695883082,4.672385137423051
30,1,149.33378185913898,1.099438420846127,1,33,151.43694530974608,25,150.33577375649475,1.32,0.09504943385502584,0.9049505661449742,2.2534832065329997,1,154.0037803382147,1.0491594091290608,1,56,156.07271373295225,46,155.0214371922193,1.2173913043478262,0.013406672286975785,0.9865933277130242,4.298505410973004,1,145.5816916904878,0.8990366439102218,1,53,147.4994633096503,40,146.59936553204898,1.325,0.042103723224721334,0.9578962767752787,3.1246033270999027,0,155.6878512832336,2.8500214320374653,0,60,159.55839613149874,40,156.70633104920853,1.5,0.7269625308155634,0.27303746918443667,-0.9792659012225052
31,0,153.93863281258382,1.5822566276183352,0,62,156.53996851365082,16,154.95658201165497,3.875,0.7631933832733357,0.2368066167266642,-1.170267605503918,1,158.57301338668913,0.9319867021404207,1,37,160.50820205791388,54,159.5751230120659,0.6851851851851852,9.692109337322563e-10,0.9999999990307891,20.7545388448876,0,150.00041678920388,0.6486786198802292,1,71,151.65216740302276,64,151.0023371805437,1.109375,0.015079323937201017,0.984920676062799,4.179236576189038,0,162.05872106913012,2.850529875489883,1,9,165.9127432834357,7,163.06025943649,1.2857142857142858,0.17918848623529404,0.820811513764706,1.521855254251701
32,0,159.0399268346373,1.4661537458887324,0,12,161.50978704239242,3,160.0418049544096,4.0,0.23913886993259925,0.7608611300674007,1.1574064287909858,0,163.00921677192673,0.8493427173234522,1,22,164.86221735854633,31,164.01100797823165,0.7096774193548387,8.236766824154529e-11,0.9999999999176323,23.219828131639648,1,154.15388256020378,0.6156570554012433,1,15,155.78817068994977,42,155.17198622808792,0.35714285714285715,2.3564101311213115e-05,0.9999764358986888,10.655762570528697,0,168.41302594949957,1.6165601648390293,1,37,171.03330284776166,52,169.41477567446418,0.7115384615384616,0.01791243237211515,0.9820875676278848,4.004185459426437
33,0,164.0101791403722,0.9488498788559809,1,12,165.96234437066596,23,165.01184669265058,0.5217391304347826,0.02496731920715145,0.9750326807928485,3.664903251216474,0,167.3623234324623,1.099014125415124,1,55,169.4814078392228,60,168.38056971738115,0.9166666666666666,4.360229838951124e-05,0.9999563977016105,10.04035709039393,1,158.28964960062876,1.3963358097244054,1,87,160.691811769153,89,159.29414539423306,0.9775280898876404,0.003030430865980427,0.9969695691340196,5.796015437657382,0,173.53340615623165,1.3326855649938807,0,14,175.88584753405303,7,174.5513652318623,2.0,0.3073286216045247,0.6926713783954753,0.8126380815051459
34,1,168.4628937029047,2.7339979575481266,1,54,172.20064276410267,31,169.4644893540535,1.7419354838709677,0.20692481285405984,0.7930751871459402,1.3435625263346271,1,171.981851690216,1.2490985696204007,1,14,174.2348672891967,8,172.98388664913364,1.75,1.0435186048596279e-09,0.9999999989564814,20.680667559241016,0,163.19281700183637,1.1168337444541976,1,24,165.31238298781682,90,164.19440909742843,0.26666666666666666,1.7644600114330444e-08,0.9999999823553999,17.852836025263322,1,178.3862242246978,1.1494918528478593,1,28,180.5389571575215,82,179.3877373081632,0.34146341463414637,6.885717370641586e-05,0.9999311428262936,9.58340728540613
35,0,174.7007326404564,2.0498005929403007,1,35,177.77102425473277,62,175.71903107350226,0.5645161290322581,0.0011882906340843213,0.9988117093659157,6.7340504492652125,0,176.73549760889728,0.9993777789641172,1,56,178.7543593988521,59,177.75329036382027,0.9491525423728814,0.0001276144302897464,0.9998723855697103,8.966369480829043,1,167.81378407147713,0.8152975500561297,1,40,169.64734805456828,93,168.8308072477812,0.43010752688172044,2.0635814990122014e-07,0.9999997936418501,15.393652379646339,0,183.03974945226219,1.2993937788996845,0,50,185.35877222951967,7,184.05762951576617,7.142857142857143,0.9865299577044405,0.013470042295559502,-4.293725562270051
36,1,180.27110820519738,2.549634469905868,1,32,183.84078727744054,16,181.2898009089986,2.0,0.23071815103009818,0.7692818489699018,1.2042605758189626,0,181.2550383110065,1.0994060258381069,0,87,183.37439372960944,76,182.27318425045814,1.144736842105263,0.9991690054686102,0.0008309945313897584,-7.092056003890146,1,172.14884829847142,1.0158478699158877,1,69,174.18394748843275,61,173.16685991722625,1.1311475409836065,0.01798094552966667,0.9820190544703333,4.0002980963861665,1,187.85943652456626,1.2330219594296068,0,58,190.1120578526752,6,188.87728893372696,9.666666666666666,0.9962111401071445,0.003788859892855445,-5.571894069165771
37,1,186.34167280653492,1.4827269476372749,1,42,188.8271707117092,67,187.34328228479717,0.6268656716417911,0.0011049296405445386,0.9988950703594555,6.806868079229696,0,185.8744630627334,1.3994887911248952,0,80,188.27784004376736,60,186.87630562705453,1.3333333333333333,0.9996035925501657,0.00039640744983426536,-7.832671475915777,1,176.68526323896367,1.2824515901738778,1,32,178.98724703746848,16,177.70355574600399,2.0,0.06690196309242546,0.9330980369075745,2.6352819620113355,1,192.61303819646128,4.735002202447504,1,53,198.36785507574677,55,193.63085149461403,0.9636363636363636,0.10294211071939152,0.8970578892806085,2.1649535981411527
38,0,191.3284114006674,1.0497223708080128,1,56,193.3972701288294,59,192.34631635295227,0.9491525423728814,0.009051283624781803,0.9909487163752182,4.695756198975456,1,190.77808043838013,0.8821106526302174,1,19,192.66365380014759,37,191.77959352184553,0.5135135135135135,1.1184386750073827e-12,0.9999999999988816,27.51908744337039,0,181.48839725740254,0.649057878414169,1,60,183.15687633201014,70,182.50663919665385,0.8571428571428571,0.0006334644852098448,0.9993665355147902,7.363672955797461,1,200.86894840700552,1.0324269976699725,0,94,202.92063462582882,46,201.88636585406493,2.0434782608695654,0.9929062102669313,0.007093789733068686,-4.941416492891687
39,1,195.8981639542617,0.9657371540088207,1,87,197.86698218865786,89,196.8999219754478,0.9775280898876404,0.002464442173640058,0.9975355578263599,6.00332231191331,1,195.16417271271348,0.8656871789135039,1,14,197.03342492168304,57,196.1657687589759,0.24561403508771928,0.0,1.0,inf,1,185.6577895154478,0.999471013317816,1,55,187.67648103402462,95,186.6758200970944,0.5789473684210527,2.405777525860131e-06,0.9999975942224741,12.937635005298946,1,205.42092914378736,2.2499850863823667,1,66,208.6908936476102,59,206.43925128050614,1.11864406779661,0.29014641182250034,0.7098535881774997,0.8946730710050359
40,1,207.37354474363383,1.2161516718333587,1,50,209.60823623056058,62,208.39089107967447,0.8064516129032258,0.0038848195517502404,0.9961151804482498,5.54678635860383,0,206.5561999877682,1.9664194243960083,0,62,209.54170559660997,17,207.57337881799322,3.6470588235294117,0.9999696883762673,3.0311623732663458e-05,-10.403948985389693,1,197.1838589947438,0.7486863236408681,1,26,198.95062054193113,84,198.2007664181292,0.30952380952380953,7.817348024463655e-08,0.9999999218265198,16.364335296044768,1,218.21390021941625,1.33203964040149,1,42,220.56531838944647,39,219.2316471473314,1.0769230769230769,0.1930215863250727,0.8069784136749273,1.4304948901638614
41,0,212.10905380919576,0.7987879529828206,1,9,213.91084422543645,7,213.11070160847157,1.2857142857142858,0.13052116307003137,0.8694788369299686,1.8963586114083708,0,212.04194796655793,1.3989222737727687,1,6,214.44496899761725,26,213.04408011049964,0.23076923076923078,5.329070518200751e-15,0.9999999999999947,32.865599558769205,0,201.45175732986536,0.8824796394910663,1,78,203.33698738366365,65,202.4533324377844,1.2,0.045414467094368915,0.9545855329056311,3.045446536566587,1,223.06623552343808,1.0823022571858019,1,58,225.15191397152375,58,224.0677968043601,1.0,0.13170127522699215,0.8682987247730078,1.8859995168982915
42,0,216.4119023962412,1.8167478188406676,0,51,219.2480607444886,7,217.43015184160322,7.285714285714286,0.8065865126619566,0.19341348733804345,-1.427980842443662,1,216.94550687307492,3.8182308776304126,1,69,221.78335647727363,61,217.96340985002462,1.1311475409836065,0.4035903077854214,0.5964096922145786,0.39052756017236945,0,205.83771133283153,1.949994370341301,0,43,208.7907686107792,7,206.83956930448767,6.142857142857143,0.7511897054296857,0.24881029457031437,-1.1049674867337096,1,227.65242221741937,2.3164082638686523,1,74,230.97289723868016,60,228.654237917508,1.2333333333333334,0.5241445503672372,0.47585544963276283,-0.096653374888218
43,1,221.74880010110792,0.8989600021159276,1,25,223.6506693320116,37,222.75048898661043,0.6756756756756757,0.012234459838566969,0.987765540161433,4.391188815007723,1,224.28368497046176,1.3488467183196917,1,46,226.6366241251817,40,225.2858834846411,1.15,9.202870037572364e-05,0.9999079712996243,9.293318036023857,0,211.29144752305,0.5653725129086524,1,53,212.8595514872577,57,212.29307477909606,0.9298245614035088,0.0018807338669630802,0.9981192661330369,6.274210718873764,0,233.47314316406846,1.0671579907648265,1,22,235.56007118988782,31,234.49132505408488,0.7096774193548387,0.04228996069453872,0.9577100393054613,3.1199953371402267
44,0,226.15178083593491,0.8489472613437101,1,87,228.02022119460162,85,227.17008717020508,1.0235294117647058,0.004062754944268998,0.995937245055731,5.501822947428238,0,229.13667173008434,1.2966761545976624,0,50,231.43968071171548,7,230.1411438200157,7.142857142857143,0.9955728397688052,0.004427160231194817,-5.415559942681352,0,215.36106832372025,0.749286026111804,1,6,217.129595793318,26,216.3790688808076,0.23076923076923078,8.376916090735431e-05,0.9999162308390926,9.387361853803618,0,238.0594191418495,1.5824012199882418,1,14,240.66288145596627,57,239.07821772200987,0.24561403508771928,0.0003408627932570685,0.9996591372067429,7.983689606566467
45,1,230.52124499506317,1.3821610228624195,1,12,232.9066522337962,9,231.52333881810773,1.3333333333333333,0.12901956262519942,0.8709804373748006,1.9096554755186315,0,233.94022135261912,1.1157828824361786,1,45,236.07622266421095,60,234.95856600778643,0.75,3.4250367098032086e-08,0.9999999657496329,17.189568519854532,1,219.63145949330647,0.9981586209032685,1,17,221.63262650335673,82,220.63313692214433,0.2073170731707317,2.0770566599992435e-08,0.9999999792294334,17.689728898929893,1,243.16280027094763,1.5498434570617974,1,43,245.71609102992807,93,244.16448283556383,0.46236559139784944,0.00011934328700069496,0.9998806567129993,9.03338710268083
46,1,235.40803870011587,1.115755228092894,1,28,237.52663441654295,82,236.4096173637081,0.34146341463414637,5.5692807886531526e-05,0.9999443071921135,9.795603847333641,0,238.5764144663699,1.1489893352845684,0,62,240.72892260958906,16,239.57821001834236,3.875,0.9999788323528588,2.116764714124582e-05,-10.763015452301712,1,224.13398571056314,0.632563293678686,1,46,225.78540328808594,36,225.15160621900577,1.2777777777777777,0.02406634308795752,0.9759336569120425,3.70258029758579,0,248.21640490577556,1.3659726104233414,0,62,250.58572012698278,17,249.21788598934654,3.6470588235294117,0.9896630172101426,0.010336982789857396,-4.561636471849463
47,1,240.02771313046105,0.7825110469711944,1,66,241.82933801610488,59,241.04563981108367,1.11864406779661,0.019757887709406563,0.9802421122905934,3.9042468052011507,0,243.2298377682455,2.0001655305968598,1,60,246.24998429627158,70,244.247706374852,0.8571428571428571,4.290771313286701e-05,0.9999570922868671,10.056416046250565,1,228.28648200200405,2.3338466491550207,1,97,231.6396222426556,61,229.30490250873845,1.5901639344262295,0.7817589321200348,0.21824106787996525,-1.2759461542856805,0,253.08595301536843,4.868563617579639,0,96,258.95812156412285,89,254.08777898701373,1.0786516853932584,0.28049633734980794,0.719503662650192,0.9420009495626671
48,0,244.33059134695213,1.866096462123096,0,43,247.1994753590552,7,245.3321901585441,6.142857142857143,0.6888553364936421,0.311144663506358,-0.7947733274242276,1,248.74998449382838,1.066243029665202,0,97,250.83620931115001,61,249.7681403098395,1.5901639344262295,0.9999999970078225,2.9921775497934534e-09,-19.627264434094133,1,234.1404461422935,0.6490302241872996,1,58,235.80863168661017,58,235.15851504483726,1.0,0.004000628038573706,0.9959993719614263,5.51729526858499,1,261.45829993416555,1.5161759679904208,1,17,263.9781033518957,82,262.460029511014,0.2073170731707317,1.4466144050873098e-05,0.9999855338559491,11.143685065445565
49,0,249.70073185034562,0.9823988496791571,1,45,251.68561918882187,42,250.70237056317274,1.0714285714285714,0.0312180159618346,0.9687819840381654,3.435044233065508,0,253.33635726151988,1.5660227831685916,0,43,255.9060225066496,7,254.33798965334427,6.142857142857143,0.6013544721941972,0.3986455278058027,-0.41111194411472596,1,238.30955948727205,0.6489444958278909,1,33,239.9616028412711,25,239.3113317306852,1.32,0.016075008378959366,0.9839249916210406,4.114283874754165,0,266.47858354845084,3.4349253631662577,0,80,270.93326077377424,60,267.4965750190895,1.3333333333333333,0.7206552090718387,0.27934479092816134,-0.9477139821840853
50,1,254.18712575384416,1.082367442199029,1,10,256.288968910696,44,255.2054143102141,0.22727272727272727,0.0015684827821623726,0.9984315172178376,6.456076793518157,1,258.4061917902436,0.8159525610972196,1,25,260.22533051786013,37,259.40770013292786,0.6756756756756757,8.157785558182695e-11,0.9999999999184221,23.229463268380183,0,242.4627550364239,0.6477747204480693,1,15,244.1311669506831,42,243.48213988705538,0.35714285714285715,2.3564101311213115e-05,0.9999764358986888,10.655762570528697,1,273.4327051205328,1.2160932028200477,0,97,275.6526071059052,61,274.43460891919676,1.5901639344262295,0.9614182933154509,0.0385817066845491,-3.21563133902114
51,1,258.7900136492681,1.1996772352140397,1,42,260.9922346819658,39,259.79172584344633,1.0769230769230769,0.035695842763990404,0.9643041572360096,3.296372527833974,1,262.72595846722834,1.165637993835844,0,88,264.8953333426034,96,263.72781801910605,0.9166666666666666,0.651501962129984,0.34849803787001604,-0.6256478083022085,1,246.6327746512834,0.732841614051722,1,14,248.3838530689245,8,247.649835753371,1.75,0.010508725013247067,0.9894912749867529,4.544985081650507,1,278.1531931788195,1.0325573678128421,1,15,280.2051768786041,19,279.17096420540474,0.7894736842105263,0.08379651904743202,0.916203480952568,2.3918470129706173
52,1,263.49343625979964,2.6172448054421693,1,97,267.1297557930229,61,264.51130526163615,1.5901639344262295,0.1542932877242582,0.8457067122757418,1.7013173667433885,1,267.3957866750425,1.0495880502276123,1,40,269.4651194763137,93,268.41370940499473,0.43010752688172044,6.8833827526759706e-15,0.9999999999999931,32.609666184632005,0,250.88446047506295,1.149306174251251,0,62,253.03656012529973,17,251.88599923753645,3.6470588235294117,0.9444104614723394,0.05558953852766062,-2.8325658549487045,1,282.70583682798315,1.3994058283278719,1,88,285.1088448220398,96,283.7075976146152,0.9166666666666666,0.043910601472077815,0.9560893985279222,3.080695639465777
53,0,269.6309557906352,0.8323953928193077,1,71,271.48266373795923,64,270.6491155573167,1.109375,0.015744935553100747,0.9842550644468993,4.135366313920375,0,271.9652283155592,1.1491410387679935,1,37,274.11802840884775,52,272.96691522584297,0.7115384615384616,1.9874648593543043e-09,0.9999999980125351,20.036405948396926,1,255.53775380190928,0.9146692055510357,1,98,257.4562333703507,73,256.5403691054089,1.3424657534246576,0.31889190634833353,0.6811080936516665,0.7588688275936999,0,287.6093842777191,3.1002289378084242,1,68,291.7296001390787,63,288.6276262169704,1.0793650793650793,0.2342134988898389,0.7657865011101611,1.1846703239113434
54,1,273.9837847233284,0.9824130717897788,1,55,275.9690035179956,95,274.9853416585829,0.5789473684210527,9.248224246383163e-05,0.9999075177575362,9.288401418719912,1,276.61869823466986,0.9990328907733783,1,24,278.6211867235834,69,277.6202156638028,0.34782608695652173,4.440892098500626e-16,0.9999999999999996,35.35050620855721,1,259.9572516399203,0.6819261591881514,1,14,261.6424449530896,57,260.9592549940571,0.24561403508771928,1.2119663643783696e-06,0.9999987880336356,13.623265210898213,0,294.2303213228006,1.4489203970879316,1,77,296.6833226996241,72,295.2323495657183,1.0694444444444444,0.23167653184436865,0.7683234681556314,1.1988686874786316
55,0,278.47008697257843,0.8488255825359374,1,45,280.32193042582367,92,279.4717557100812,0.4891304347826087,6.10481696413645e-05,0.9999389518303586,9.703786289128283,1,281.12160687090363,0.9325362320523709,1,45,283.0742189150769,40,282.13959478598554,1.125,4.502538099537823e-05,0.9999549746190046,10.008239178680462,0,264.1434134450974,0.8490958042675629,1,60,265.9954852433875,40,265.145199515624,1.5,0.14117774693759944,0.8588222530624006,1.8055422644319397,0,299.1834264030913,1.0668241642415524,1,60,301.2535963385599,61,300.1851591403829,0.9836065573770492,0.1158248808199156,0.8841751191800844,2.0325757393033665
56,1,282.82300084340386,2.2168975467793643,1,16,286.05923583358526,10,283.8411728568608,1.6,0.15207394380735328,0.8479260561926467,1.7184265591301868,1,285.57477733376436,1.8665341895539314,1,62,288.46092669444624,43,286.5926190762548,1.441860465116279,0.7442584226564051,0.25574157734359493,-1.0682208456772881,0,268.49689462338574,0.9994267665315419,0,50,270.51541587070096,7,269.5146988350898,7.142857142857143,0.9186413442490557,0.0813586557509443,-2.4240285494016724,0,303.75348117831163,1.7000246912939474,0,95,306.4734536820324,16,304.7714900316205,5.9375,0.9999161075333761,8.389246662392666e-05,-9.385890842477957
57,1,288.5600810664473,0.9656190308742225,1,14,290.5286413261201,57,289.5617553347256,0.24561403508771928,0.0004223110750327663,0.9995776889249672,7.769345970585043,0,290.9617814088706,0.9324516890337691,1,45,292.9140296019614,42,291.9798791508656,1.0714285714285714,2.1957669528838153e-05,0.9999780423304712,10.726372112502936,1,273.0162559677847,1.182704231585376,0,94,275.21848766715266,46,274.034448919585,2.0434782608695654,0.9703932669545425,0.029606733045457436,-3.4896996159679095,1,308.97339936112985,1.6329832434421405,1,24,311.60998279508203,69,309.9752119007753,0.34782608695652173,0.00025187955567718134,0.9997481204443228,8.286307627088428
58,1,293.0296888302546,5.969246085383929,0,82,300.0184481610777,40,294.0480330903083,2.05,0.4364186268078425,0.5635813731921575,0.2557097938580723,1,295.41437152714934,1.2494782232679427,0,74,297.66737843479495,60,296.41602762264665,1.2333333333333334,0.9718907478866877,0.028109252113312225,-3.5431446200015237,0,277.71946643060073,0.5990384216420352,1,45,279.3381903442787,60,278.7376672835089,0.75,0.00023930743794919884,0.9997606925620508,8.33752214534529,0,314.1107055590255,1.750070222071372,1,45,316.88047431013547,92,315.12848014128394,0.4891304347826087,0.00018291991209762326,0.9998170800879024,8.606279203081483
59,1,302.5199491950916,1.8166478683706373,1,46,305.3552332735853,36,303.5373709878186,1.2777777777777777,0.06890425075148687,0.9310957492485131,2.6036442469604317,1,300.1674691012595,1.9157018949044868,0,72,303.0876972094411,51,301.17008282453753,1.411764705882353,0.9952502420059081,0.00474975799409193,-5.34490053690492,0,281.83864446682855,1.632838256075047,1,41,284.47436113702133,22,282.8403313771123,1.8636363636363635,0.11395415766435113,0.8860458423356489,2.0509724482827814,1,319.38049623603,1.8987446937244385,1,50,322.2834597857436,62,320.3831660578726,0.8064516129032258,0.026741550463710184,0.9732584495362898,3.5944311152977066
60,0,314.86213044519536,1.2159225364448503,1,80,317.0963928960264,60,315.8793061148608,1.3333333333333333,0.051100505581967215,0.9488994944180328,2.9215084950384154,1,312.6106559789041,1.61583680822514,1,15,315.2461190200411,42,313.62806433963124,0.35714285714285715,1.0658141036401503e-14,0.9999999999999893,32.17245237820926,0,293.98144517245237,0.6153552290052176,1,56,295.6153892041184,59,294.9987235580338,0.9491525423728814,0.0022842267363101243,0.9977157732636899,6.079440880964283,1,331.8078739597695,2.9506647888338193,1,33,335.77625762706157,25,332.823654669337,1.32,0.3319915349818473,0.6680084650181527,0.6991913740904128
61,1,319.5973515113583,0.7987117061857134,1,19,321.399056199356,37,320.59915535966866,0.5135135135135135,0.007644503973059824,0.9923554960269402,4.866094451272316,0,317.7461674149381,1.6832199838245288,1,41,320.4341751423199,22,318.7478677573381,1.8636363636363635,0.0016509907775548172,0.9983490092224452,6.404727344870262,0,298.11619177041575,1.0825104542309418,1,87,300.2018453296041,76,299.1181097913068,1.144736842105263,0.03268866131668191,0.9673113386833181,3.3874921380656273,0,338.27632103441283,1.232428972958587,0,43,340.5122451115167,7,339.27814463572577,6.142857142857143,0.9644569829579311,0.03554301704206885,-3.300821520424874
62,1,323.9004639990162,0.7482406948693097,1,46,325.6689357650466,40,324.91927996184677,1.15,0.04289558392244508,0.9571044160775549,3.105143611445527,0,322.9327807747759,1.3150725627783686,1,28,325.269286184106,41,323.95220987219363,0.6829268292682927,1.6567969218783674e-10,0.9999999998343203,22.520964756548846,0,302.7037943628384,0.6323294176254421,1,58,304.3545901143225,58,303.72113911865745,1.0,0.004000628038573706,0.9959993719614263,5.51729526858499,0,343.012711876072,2.150415110285394,0,28,346.1662799677579,18,344.01426999643445,1.5555555555555556,0.40024093011088446,0.5997590698891155,0.4044613333283439
63,0,328.17000420740806,2.216746238525957,1,38,331.4060724817682,43,329.1881655541947,0.8837209302325582,0.01607197543031902,0.983928024569681,4.1144756498287824,0,327.7694645541487,1.049022717983462,0,96,329.82207600574475,89,328.7711143286433,1.0786516853932584,0.9998578495250217,0.00014215047497833413,-8.858482217905323,0,306.8556581615703,0.7166101400507614,1,22,308.59136436262634,31,307.87356785463635,0.7096774193548387,0.0006759466335088948,0.9993240533664911,7.298720254362627,1,348.66697231214494,2.667170237749815,1,46,352.35396512795705,36,349.6849898567889,1.2777777777777777,0.39344406003532717,0.6065559399646728,0.4328580604629216
64,1,333.9069813195383,1.2490867178421468,1,53,336.15889904415235,40,334.9086401804816,1.325,0.07235349126318036,0.9276465087368196,2.5510870358035223,1,332.3225573875243,1.0154990311712027,1,17,334.3584984523477,82,333.3410272769397,0.2073170731707317,0.0,1.0,inf,0,311.09174539893866,1.0824646272230893,1,14,313.1770963415038,7,312.0933552723145,2.0,0.012620723424559332,0.9873792765754407,4.359714058605008,1,354.8544113492826,1.0328457623254508,1,15,356.9069848750951,56,355.8722902275622,0.26785714285714285,0.0004533352773765653,0.9995466647226234,7.698425141515943
65,0,338.66055494209286,6.536076373187825,0,62,346.215941104223,17,339.67859540029895,3.6470588235294117,0.7397929644155644,0.2602070355844356,-1.044892764382644,0,336.85891030333005,1.2993613838916644,0,86,339.161749013816,59,337.8604257571278,1.4576271186440677,0.999996202883503,3.797116496970226e-06,-12.481264798742043,0,315.6779949076008,0.8156373024685308,1,80,317.51322644297034,60,316.69625106907915,1.3333333333333333,0.14903157452127347,0.8509684254787265,1.7422168320052844,0,359.407229615259,1.4324692691443488,1,12,361.8426752736559,23,360.4089216613211,0.5217391304347826,0.032575987687022634,0.9674240123129774,3.391061438623477
66,1,348.71697557135485,0.7492729891091585,1,62,350.48560022597667,43,349.7349788938882,1.441860465116279,0.09842458224745565,0.9015754177525444,2.214853104770482,1,341.66210871678777,0.9825967750512064,1,58,343.6644016505452,58,342.6801815700019,1.0,0.0007630217344285484,0.9992369782655715,7.177460728612268,1,320.01438930490986,0.5659785363823175,1,53,321.58315539127216,55,321.01592490670737,0.9636363636363636,0.0027219836869648573,0.9972780163130351,5.903668672782685,1,364.34371013578493,2.833966945298016,0,41,368.181376826833,7,365.3453034166014,5.857142857142857,0.9533422378715734,0.046657762128426615,-3.017134651326252
67,1,352.9865236808546,1.2659581906627864,1,26,355.2553871498676,84,353.98817543068435,0.30952380952380953,3.699630906406348e-05,0.9999630036909359,10.20465540832778,0,346.1651137479348,1.1993809394771233,1,58,348.3681497912621,58,347.16673231264576,1.0,0.0007630217344285484,0.9992369782655715,7.177460728612268,1,324.08348625479266,0.5820713440189138,1,42,325.6686829259852,67,325.08531538699754,0.6268656716417911,3.717892943166934e-05,0.9999628210705683,10.19973119066427,1,370.6815397895407,1.7626991353463382,1,19,373.46788608806673,37,371.70342182030436,0.5135135135135135,0.012056139722998682,0.9879438602770013,4.406051823795546
68,1,357.7561758890515,3.784467388642952,1,3,362.54370183951687,18,358.7578774165595,0.16666666666666666,0.022968672371162624,0.9770313276288374,3.7503875000069677,0,350.86820806283504,1.4160394745413214,1,60,353.28795044356957,61,351.8698511213297,0.9836065573770492,0.0010852946868432634,0.9989147053131567,6.824817844043748,1,328.16976559057366,0.7488577800104395,1,46,329.9383096526144,40,329.1880987888435,1.15,0.011616269100439447,0.9883837308995606,4.4436643897678705,1,375.9682126059197,3.0004215301014483,0,98,379.9724603012437,73,376.9700200097868,1.3424657534246576,0.837047545785466,0.16295245421453397,-1.6364224075556684
69,1,365.04472445487045,0.7657806108472869,1,6,366.82985989155713,8,366.06289923377335,0.75,0.09456001618825804,0.905439983811742,2.259186270661932,0,355.7884997758083,1.3490956067107618,1,28,358.15814368764404,18,356.8067950482946,1.5555555555555556,6.395909718515114e-07,0.9999993604090281,14.262436331799137,0,332.43914777447935,0.5820677885785699,1,45,334.02415995218325,42,333.44096624001395,1.0714285714285714,0.006675298155965126,0.9933247018440349,5.002643730525764,0,382.4728761028964,2.067314434912987,1,55,385.55914319178555,60,383.49067399371415,0.9166666666666666,0.06924327681071729,0.9307567231892827,2.59837188154869
70,0,369.3306470505195,0.8158624871866778,1,41,371.1493026185781,22,370.3322197882226,1.8636363636363635,0.22371424147904095,0.776285758520959,1.2441511681497426,1,360.657909614034,1.3993556555360556,1,50,363.0606955838157,62,361.65974032646045,0.8064516129032258,5.959575880565282e-07,0.9999994040424119,14.333095737434338,0,336.5251327898586,0.6147610573098063,1,60,338.1434881115565,61,337.52754266164266,0.9836065573770492,0.0033473485910289202,0.9966526514089711,5.696233748387882,1,388.05981459782925,2.4163918688427657,0,62,391.4957773910137,43,389.07818532700185,1.441860465116279,0.6969233477240069,0.30307665227599306,-0.8326896788174317
71,1,373.6501581231132,2.6668356211157516,0,58,377.32007917016745,6,374.652012144099,9.666666666666666,0.8916215264661005,0.10837847353389948,-2.107412259206942,0,365.5614444218809,1.1489040021551773,1,15,367.71432431740686,42,366.56335928221233,0.35714285714285715,1.0658141036401503e-14,0.9999999999999893,32.17245237820926,0,340.6447461831849,1.298830026993528,0,51,342.9635117757134,7,341.6635068374453,7.285714285714286,0.9316595638295085,0.06834043617049146,-2.6124658440685256,0,393.9971365982201,7.270149392308667,1,15,402.28714412415866,42,395.01511819229927,0.35714285714285715,0.003366428723821868,0.9966335712761781,5.6905307144989585
72,1,379.82126060000155,1.5665612511802465,1,43,382.40675870270934,97,380.83892535523046,0.44329896907216493,2.7841294794050953e-05,0.999972158705206,10.488962373490166,0,370.21440155175515,2.7169269789010286,1,68,373.9516682436224,63,371.23289830540307,1.0793650793650793,0.13900465972526377,0.8609953402747362,1.8235816366487714,1,345.46446130471304,2.7837523283669725,0,82,349.2512852320215,40,346.4662335481262,2.05,0.912142353679207,0.08785764632079299,-2.3400782182388014,0,404.7875204196898,1.1153870313428342,1,28,406.9066431473475,41,405.7893831320107,0.6829268292682927,0.024053082581061203,0.9759469174189388,3.703145034856683
73,1,384.90782833017875,0.6318407271755859,1,40,386.5593604752794,93,385.92629940481856,0.43010752688172044,3.6254317434591954e-05,0.9999637456825654,10.224915827137075,1,376.4519588109106,1.0657780428882688,1,43,378.52133190853056,93,377.4536812766455,0.46236559139784944,5.861977570020827e-14,0.9999999999999414,30.467704285970783,1,351.75225569924805,0.9155794259859249,1,16,353.67047097184695,10,352.75374112837017,1.6,0.010574777167924987,0.989425222832075,4.538652538407846,0,409.4072710967157,10.421919166576117,1,7,420.84939328511246,54,410.42580656625796,0.12962962962962962,0.000194218878605823,0.9998057811213942,8.546330556907908
74,0,389.06058773212135,5.26870386430528,1,78,395.34906281658914,34,390.07895016495604,2.2941176470588234,0.5448628960870034,0.45513710391299655,-0.1799354953598536,0,381.0216497350484,1.049280297709629,1,7,383.074414470233,54,382.0234448919073,0.12962962962962962,0.0,1.0,inf,1,356.17191393196117,0.7826852687867358,1,15,357.97379797766916,19,357.18996308150236,0.7894736842105263,0.0016678860062445677,0.9983321139937554,6.394529040484324,0,423.3500160987023,1.0829363299999386,0,41,425.4529788582586,22,424.3680810506921,1.8636363636363635,0.7038750151557116,0.29612498484428845,-0.8658191938077716
75,0,397.85002972825896,0.9834627488162369,1,77,399.8528386116959,72,398.86819739616476,1.0694444444444444,0.009345606331992662,0.9906543936680073,4.6634594066259805,1,385.5750293825986,1.5160199189558625,1,32,388.11099987954367,16,386.5931765072746,2.0,2.289386192844134e-05,0.9999771061380716,10.684618827268034,1,360.474850617582,0.7822487263474613,1,52,362.2765865153633,68,361.49306924815755,0.7647058823529411,0.00020329903444660236,0.9997967009655534,8.500629267040612,0,427.9530699198367,0.9993228656239808,0,12,429.9557120874524,3,428.95460512663703,4.0,0.37223492727160634,0.6277650727283937,0.5226408285988403
76,0,402.35455850942526,6.135797855211422,1,60,409.50803218164947,61,403.3710914150579,0.9836065573770492,0.00966145947414565,0.9903385405258543,4.6299021237082885,1,390.61192530975677,0.9990561994491145,1,3,392.63067253201734,18,391.6299298173981,0.16666666666666666,1.1102230246251565e-14,0.9999999999999889,32.131630383689,1,364.7772922917502,1.3491145696025342,1,43,367.12983796570916,97,365.77940231224056,0.44329896907216493,1.7309508648644112e-07,0.9999998269049135,15.56942458747675,1,432.45617450622376,1.2664535971125588,1,43,434.742676656344,97,433.47435244568624,0.44329896907216493,6.72469782265761e-05,0.9999327530217734,9.607071224686269
77,1,412.00922467315104,2.3501018269453198,1,41,415.36217291420326,7,413.01084718841594,5.857142857142857,0.653955391794664,0.346044608205336,-0.6364714486693687,1,395.1317121349275,1.3829207251546904,0,94,397.53398255014326,46,396.14920503855683,2.0434782608695654,0.9999999998829592,1.1704086016317094e-10,-22.868498009817255,1,369.63082581560593,0.6328090216265991,1,88,371.2827727746917,96,370.64882044668775,0.9166666666666666,0.0010022797870391509,0.9989977202129608,6.904475304309226,0,437.24240070628,1.8500601480482146,1,24,440.0954242065782,90,438.2442448508227,0.26666666666666666,1.2395690781374924e-05,0.9999876043092186,11.298149267614974
78,1,417.86292333249,0.7992501743137836,1,15,419.6650376986945,56,418.8644522182876,0.26785714285714285,0.0005181019987285929,0.9994818980012714,7.564820190086371,1,400.0345224009361,1.4664611032931134,0,58,402.52059946546797,6,401.0523562422022,9.666666666666666,0.9999898090016484,1.0190998351657543e-05,-11.493995550812368,0,373.7836385507835,0.9825537133729085,1,45,375.76918050530367,92,374.7852804240538,0.4891304347826087,6.371915500791303e-07,0.9999993628084499,14.266194882825006,1,442.5962982788915,1.2494995564920828,1,45,444.8656350307865,40,443.61428816930857,1.125,0.24078408022081665,0.7592159197791833,1.148385617017161
79,0,422.16626377031207,5.168511272058822,0,53,428.35419386823196,15,423.1845226972364,3.533333333333333,0.6418227023229975,0.35817729767700246,-0.5832839922283282,1,405.0217528459616,1.3826398367527872,1,54,407.42385180469137,31,406.039357156842,1.7419354838709677,0.41523857897519756,0.5847614210248024,0.34235069259752365,0,378.2701391206356,0.8157427837140858,1,96,380.10506803926546,89,379.2881535048364,1.0786516853932584,0.016301219919968468,0.9836987800800315,4.100079785655716,0,447.36590465984773,0.8820640353951603,1,58,449.251767206355,58,448.3678033228498,1.0,0.13170127522699215,0.8682987247730078,1.8859995168982915
80,0,437.86097647214774,6.118827222031541,1,55,444.998486521421,60,438.8784990054555,0.9166666666666666,0.0073894727746057765,0.9926105272253942,4.900281979474128,1,416.946823611157,2.2830354903126135,1,46,420.2493822234683,36,417.9643267864594,1.2777777777777777,0.0003868633196379978,0.999613136680362,7.857052168376388,1,389.6122966670664,0.8152987352805212,1,25,391.4460435633082,37,390.6295639909804,0.6756756756756757,0.00039153872850750115,0.9996084612714925,7.845034508635395,1,458.77479353128,1.949663704377599,0,32,461.74390134529676,16,459.79250055796,2.0,0.610580854424547,0.389419145575453,-0.44975446587136414
81,0,447.5000519504538,1.4995336305582896,1,24,450.01862119778525,90,448.517960853409,0.26666666666666666,1.4884037649487425e-05,0.9999851159623505,11.115206333807171,0,422.749372149352,1.682952527422458,0,87,425.4360943484353,85,423.75119140499737,1.0235294117647058,0.9793759518001014,0.02062404819989862,-3.86045780168201,1,393.94721867213957,0.698775113443844,1,50,395.6652676240774,62,394.9653488091426,0.8064516129032258,0.00042377767757195706,0.999576222322428,7.765877718101861,1,464.244036258664,1.1662060915259644,1,15,466.42999697779305,42,465.2620664453134,0.35714285714285715,0.003366428723821868,0.9966335712761781,5.6905307144989585
82,0,452.5194000604097,1.232551836874336,1,60,454.7551969279302,40,453.52129911840893,1.5,0.11951505738758983,0.8804849426124102,1.9970304601615188,1,427.9366045696661,1.4324088249122724,1,12,430.3894684652332,9,428.9548994471552,1.3333333333333333,1.7441625921321702e-10,0.9999999998255837,22.469576379191263,0,398.1665418931516,1.3494448405690491,0,62,400.51886593794916,16,399.16832993901335,3.875,0.9533734635443882,0.046626536455611746,-3.017836877994224,0,468.9307813713094,1.8826996884308755,0,62,471.8335837360937,17,469.94895298965275,3.6470588235294117,0.9896630172101426,0.010336982789857396,-4.561636471849463
83,0,457.2559911980061,0.9992426681565121,1,7,459.2749379259767,54,458.27443264308386,0.12962962962962962,0.0003534984053169543,0.999646501594683,7.9472780228632285,0,432.8937602099031,2.950161481159739,1,40,436.8604439300252,15,433.90813252713997,2.6666666666666665,0.009891064303929609,0.9901089356960704,4.60618321913852,1,403.01977754116524,0.8157771540572867,1,74,404.85500947153196,60,404.03791044361424,1.2333333333333334,0.05351259585488277,0.9464874041451172,2.872840600006398,1,474.3343989443965,1.0994400011841208,1,37,476.4535216720542,54,475.3523193040164,0.6851851851851852,0.01350594259882798,0.986494057401172,4.291027520428893
84,0,461.77602967689745,8.887928320094943,1,15,471.683195885038,42,462.79396662919316,0.35714285714285715,0.0029897466152797314,0.9970102533847203,5.809572414388375,1,439.3607692626538,1.7497336302185431,0,41,442.1305064088665,7,440.37917475716677,5.857142857142857,0.2652747884494737,0.7347252115505263,1.0187303411900253,1,407.3562055185903,1.0658388823503628,1,15,409.44152722659055,56,408.3743467172608,0.26785714285714285,1.7611234048864333e-06,0.9999982388765951,13.249556893184002,1,478.9537999924505,1.4328445771243423,0,54,481.39011320471764,31,479.95546122372616,1.7419354838709677,0.8051807480689439,0.19481925193105606,-1.4189945684377265
85,1,474.1840691672405,1.1993761988123879,1,14,476.3863028418273,8,475.18574975652155,1.75,0.16438197632435037,0.8356180236756496,1.6259787556424974,0,444.63159815978725,1.349409285117872,0,51,447.000151703367,7,445.64897452050354,7.285714285714286,0.9978291885828697,0.002170811417130286,-6.130481085333724,1,411.9424905827036,0.7324832938611507,1,6,413.6943373938557,8,412.9605899049202,0.75,0.002346494677520017,0.99765350532248,6.05248343898536,0,483.8907352280803,3.7173374473350123,1,56,488.61219948204234,59,484.8926654959796,0.9491525423728814,0.0900432126337305,0.9099567873662695,2.3131074164981458
86,1,478.8872669880511,1.5495763960061595,1,52,481.4396637240425,68,479.88884446641896,0.7647058823529411,0.00214871657926341,0.9978512834207366,6.1407335265766605,0,449.50074409728404,1.2493316556792706,1,53,451.753636832349,57,450.50242745201103,0.9298245614035088,3.0645319330946386e-05,0.999969354680669,10.39299997496413,1,416.19535250298213,1.850040395045653,1,45,419.06447197136004,40,417.21322743059136,1.125,0.00964043650504709,0.9903595634949529,4.632101684434718,1,491.1119255073136,3.0503754066303372,1,42,495.1822882324923,67,492.1301299157785,0.6268656716417911,0.004293784472755524,0.9957062155272445,5.446283744198344
87,1,483.9406231296016,20.895858378498815,1,53,505.85600344487466,55,484.95892156253103,0.9636363636363636,0.01175432982247071,0.9882456701775293,4.431709652622631,0,454.25419367069844,1.465790684800595,0,77,456.7226229676744,72,455.25587465509307,1.0694444444444444,0.7988480958222537,0.2011519041777463,-1.3791104450144651,0,421.5654945865972,0.8158913266379386,1,54,423.4007442947477,80,422.5836539581651,0.675,3.208765945406089e-05,0.9999679123405459,10.347006954253755,1,497.6831196382409,2.1506746653467417,1,16,500.8530531297438,10,498.7014374291757,1.6,0.27703553189656116,0.7229644681034388,0.9592143039102199
88,1,508.35718447959516,2.8326367750996724,1,74,512.2103217573604,60,509.37633900961373,1.2333333333333334,0.03240772009019932,0.9675922799098007,3.3964141313029916,0,459.2241757547017,1.9498193584149703,1,24,462.1936407039175,90,460.2423031262588,0.26666666666666666,0.0,1.0,inf,1,425.9018905641278,0.7490869153989479,1,4,427.6702971450286,22,426.92000489868224,0.18181818181818182,0.00012057085987815519,0.9998794291401218,9.023152350955996,0,503.35332038847264,1.4997694819467142,1,35,505.856639493024,62,504.3549302618485,0.5645161290322581,0.0032622107251911725,0.9967377892748088,5.722082633537355
89,0,514.7110433361959,1.2652194267138839,1,40,516.9801074960269,15,515.7137250099331,2.6666666666666665,0.39038879800710935,0.6096112019928907,0.44567821967825333,0,464.6944235172123,1.5324248247779906,1,14,467.2305089767324,7,465.69611516816076,2.0,1.4943102311093526e-09,0.9999999985056898,20.321601118953083,1,430.17141338973306,0.8656405616784468,1,10,432.03981305705383,44,431.1729920533253,0.22727272727272727,6.340851891439847e-06,0.9999936591481086,11.96849108993469,0,508.3568348506233,1.466149400221184,1,38,510.82673219405115,43,509.35852808190975,0.8837209302325582,0.07099182886655231,0.9290081711334477,2.5715527503660316
90,1,519.4811297162669,1.1159140426898375,1,88,521.5998676544987,96,520.4827226019697,0.9166666666666666,0.0011105427488390385,0.998889457251161,6.801795260384892,1,469.7310670003062,1.1655878210440278,1,15,471.9002459254116,56,470.7330217618728,0.26785714285714285,0.0,1.0,inf,0,434.5409150796477,0.5653642165707424,1,28,436.12591382535174,41,435.5592214138014,0.6829268292682927,0.00032844695229583554,0.9996715530477042,8.020806716816617,0,513.3272597979521,1.2160047091310844,1,71,515.563013998908,69,514.3450533431023,1.0289855072463767,0.16525090998360104,0.834749090016399,1.6196662032708011
91,1,524.1010336768813,1.3824549482669681,1,56,526.486251681461,46,525.1026530317031,1.2173913043478262,0.044536679615097,0.955463320384903,3.06588326439888,0,474.40092088701203,2.783858599839732,1,35,478.2047537683975,62,475.41900401189923,0.5645161290322581,1.3119505481995475e-11,0.9999999999868805,25.05692102503092,1,438.6268846875755,0.8480129421222955,1,43,440.4787846344989,93,439.62954818853177,0.46236559139784944,3.6318958795966694e-07,0.999999636810412,14.82834049495247,1,518.063404121669,3.067344459472224,1,69,522.1506805912359,61,519.0815081846667,1.1311475409836065,0.3195186374907071,0.6804813625092929,0.7559848283595677
92,0,528.9875101480866,0.7155529569135979,1,78,530.705989321461,65,529.9891516263597,1.2,0.02397013325609587,0.9760298667439041,3.706684579399643,0,480.70502971846145,1.0158182403538376,1,7,482.7404417966027,54,481.7230302755488,0.12962962962962962,0.0,1.0,inf,0,442.9795575712342,0.6506634061224759,1,55,444.63292200898286,60,443.9814748020144,0.9166666666666666,0.0015730741584588648,0.9984269258415411,6.453149198676617,0,524.6509395536268,2.0832669959636405,0,51,527.7376767650712,7,525.6525881430134,7.285714285714286,0.9882904165870827,0.011709583412917324,-4.435568996819361
93,0,533.2070877883816,0.8660624867770821,1,59,535.0922155214939,65,534.2250859751366,0.9076923076923077,0.005429022170019282,0.9945709778299807,5.210552427570778,0,485.24142056016717,1.032276084413752,1,12,487.2771992549533,3,486.24313196423464,4.0,1.5039398615357413e-09,0.9999999984960601,20.315177596395294,0,447.1324998863274,0.7156588332727551,1,14,448.8677430760581,57,448.150888788281,0.24561403508771928,1.2119663643783696e-06,0.9999987880336356,13.623265210898213,1,530.2377887648763,3.834295240812935,1,53,535.0754609866999,40,531.2395388848381,1.325,0.49659051769082563,0.5034094823091744,0.013638140622672023
94,0,537.5933550748741,1.6496627166634426,1,58,540.2622857041424,58,538.611467829207,1.0,0.011984556345910335,0.9880154436540897,4.412079479099298,1,489.7776328342734,1.3660630794474855,1,52,492.1472423757659,68,490.77943865791894,0.7647058823529411,2.8876502489172395e-07,0.9999997112349751,15.057652253442024,0,451.3689150243299,1.2829647744074464,1,12,453.67084627971053,3,452.3867081743665,4.0,0.018065783965262483,0.9819342160347375,3.9955045557566264,1,537.5769888849463,1.582488923566416,1,4,540.1796282870928,22,538.5950909726089,0.18181818181818182,0.012341274973808325,0.9876587250261917,4.38238788451674
95,0,542.7634521215223,0.7659892030060291,1,96,544.5322857633,89,543.7651074269088,1.0786516853932584,0.005011659817684144,0.9949883401823159,5.290963857516503,1,494.64778499200474,7.336921013426036,1,54,503.0047912992304,78,495.66570298129227,0.6923076923076923,3.3274494271040567e-08,0.9999999667255057,17.21847463797234,1,456.17176222859416,0.7823708002688363,1,62,457.95696640596725,43,457.1733464229619,1.441860465116279,0.12084199785613803,0.879158002143862,1.9844807442347943,0,542.6796585093252,5.619100801763125,1,71,549.302427056944,64,543.6811490742257,1.109375,0.28852448512262574,0.7114755148773743,0.9025610507646409
96,0,547.0329559842357,0.6655872284900397,1,71,548.7014291329542,69,548.0346338080708,1.0289855072463767,0.008474016794144612,0.9915259832058554,4.762240519526733,1,505.50467929942533,1.2989216811256483,0,75,507.80813114438206,70,506.50709746743087,1.0714285714285714,0.6609209765337978,0.3390790234662023,-0.6674010935337441,1,460.4579795397585,0.8825780097395182,1,72,462.3436370495474,51,461.45987899275497,1.411764705882353,0.17047338895205721,0.8295266110479428,1.5822759819304277,0,551.8025244394084,1.7839913403149694,0,53,554.589920414961,15,552.8041975225788,3.533333333333333,0.9726654208110824,0.027334579188917605,-3.571887621908127
97,1,551.2019804405281,5.069068505545147,1,24,557.2741079030093,69,552.203862905968,0.34782608695652173,0.00020705176086588395,0.9997929482391341,8.482334670265585,1,510.3090553894872,1.1660401658155024,1,26,512.4943302827887,84,511.32648705877364,0.30952380952380953,0.0,1.0,inf,1,464.8445545786526,0.7817533198976889,1,28,466.62963470688555,82,465.84668395714834,0.34146341463414637,1.6506626676626723e-07,0.9999998349337332,15.616918661840721,0,557.0901272293413,1.5663866342511028,1,60,559.6759947140235,70,558.1074320840416,0.8571428571428571,0.03477827223881025,0.9652217277611898,3.323365013814455
98,1,559.7745288404403,0.9323272447800264,1,15,561.709979832056,42,560.7763563923072,0.35714285714285715,0.0029897466152797314,0.9970102533847203,5.809572414388375,0,514.9946931463201,1.4498574818717316,1,59,517.4649480198277,65,516.0128130117664,0.9076923076923077,0.0001263908771618194,0.9998736091228382,8.976004854343744,0,469.13048310019076,0.7491746188607067,1,12,470.899240890285,23,470.1486879037693,0.5217391304347826,0.0004522039229675201,0.9995477960770325,7.700925016666983,1,562.1758546649944,1.2326976144686341,1,55,564.4124681234825,95,563.1776482416317,0.5789473684210527,0.0004912294148856633,0.9995087705851143,7.618107949091834
99,0,564.2108728673775,1.3663566096220165,0,62,566.5799925333122,17,565.2124266420724,3.6470588235294117,0.7397929644155644,0.2602070355844356,-1.044892764382644,1,519.964706440107,3.2023265139432624,1,53,524.1862657060847,40,520.9828468486667,1.325,0.013534718084137753,0.9864652819158622,4.2888700374580395,1,473.40358833852224,0.6988438541302457,1,12,475.1189141353825,9,474.4186290989164,1.3333333333333333,0.006017003669976817,0.9939829963300232,5.1071306940297525,1,566.9123845681315,1.1163047578884289,1,40,569.0320106033469,93,567.9140505400719,0.43010752688172044,7.798489574939449e-05,0.9999220151042506,9.458917406327952
