,self_acceptUp,self_cue_times,self_decision_times,self_decisions,self_punishment_values,self_response_times,self_reward_values,self_trial_times,self_punishment_reward_ratio,self_prob_reject,self_prob_accept,self_SV,harm_other_acceptUp,harm_other_cue_times,harm_other_decision_times,harm_other_decisions,harm_other_punishment_values,harm_other_response_times,harm_other_reward_values,harm_other_trial_times,harm_other_punishment_reward_ratio,harm_self_acceptUp,harm_self_cue_times,harm_self_decision_times,harm_self_decisions,harm_self_punishment_values,harm_self_response_times,harm_self_reward_values,harm_self_trial_times,harm_self_punishment_reward_ratio,other_acceptUp,other_cue_times,other_decision_times,other_decisions,other_punishment_values,other_response_times,other_reward_values,other_trial_times,other_punishment_reward_ratio,other_prob_reject,other_prob_accept,other_SV
0,1,0.00803002156317234,1.0874741382431239,1,53,2.1215790137648582,40,1.0318470986094326,1.325,0.23247655805325385,0.7675234419467462,1.194379627881238,0,0.009763946756720543,1.4398240237496793,1,22,2.47116978908889,31,1.03020482766442,0.7096774193548387,0,0.008089280687272549,0.4090570237021893,0,59,1.4344579025637358,65,1.0248023606836796,0.9076923076923077,1,0.007121774833649397,1.139685080619529,1,75,2.169138105819002,70,1.0277783593628556,1.0714285714285714,0.08841342035558586,0.9115865796444141,2.333162803405836
1,1,4.621992840897292,0.847915121819824,0,58,6.491012546932325,6,5.641017820918933,9.666666666666666,0.9891513316045578,0.010848668395442193,-4.512804990760109,0,4.972007517237216,0.2983824994880706,1,40,6.274101620074362,15,5.974003368290141,2.6666666666666665,1,3.9363231856841594,0.07986604259349406,0,55,5.037138948217034,95,4.955840412527323,0.5789473684210527,1,4.670825216453522,0.5486227956134826,1,54,6.238456004532054,78,5.688136419514194,0.6923076923076923,0.16926287679524177,0.8307371232047582,1.5908604165032403
2,1,8.996134322602302,0.5314644814934582,1,52,10.54347316804342,68,10.010099354200065,0.7647058823529411,0.003999220633443379,0.9960007793665566,5.517648539584198,0,8.774657274130732,0.3984713489189744,1,78,10.193183528725058,34,9.793126402655616,2.2941176470588234,0,7.538984083337709,0.031022209906950593,0,96,8.589615964563563,89,8.557082249084488,1.0786516853932584,1,8.739852744620293,0.7800395931117237,1,28,10.541305465158075,82,9.759615304647014,0.34146341463414637,0.3287551590419111,0.6712448409580889,0.713820683798028
3,0,13.04457242693752,2.0319679875392467,0,12,16.097419023280963,3,14.06377281434834,4.0,0.35525849420222977,0.6447415057977702,0.5960037930793181,0,12.693814639467746,0.36506928806193173,1,68,14.062456864165142,63,13.695667478255928,1.0793650793650793,1,11.090947519754991,0.11465674475766718,0,12,12.225158627144992,9,12.109149586642161,1.3333333333333333,1,13.042768180603161,0.7807360866572708,1,45,14.844069197308272,40,14.061686889035627,1.125,0.17258486109420357,0.8274151389057964,1.5674174869445643
4,0,18.598553047515452,1.1968390333931893,1,55,20.8168644674588,60,19.618222373072058,0.9166666666666666,0.018809412528026814,0.9811905874719732,3.954409308535551,0,16.563375579891726,0.2652190555818379,1,58,17.848382874624804,58,17.581560659222305,1.0,1,14.727598724886775,0.04739790712483227,0,6,15.794686896027997,8,15.745682273292914,0.75,0,17.344967369688675,0.44849127950146794,0,14,18.8137565178331,57,18.36343491799198,0.24561403508771928,0.39300045788069515,0.6069995421193048,0.4347172597658745
5,1,23.318334294017404,1.2300518595147878,0,97,25.570140614407137,61,24.3382398665417,1.5901639344262295,0.7253536551030283,0.2746463448969717,-0.9711750845823713,1,20.34895235602744,0.2151900385506451,1,94,21.58401162107475,46,21.367401731433347,2.0434782608695654,0,18.296049660770223,0.09714327030815184,0,41,19.413818700704724,22,19.31514061638154,1.8636363636363635,0,21.314240665873513,1.566225158981979,1,60,23.884035996394232,61,22.316067825770006,0.9836065573770492,0.12924943829589275,0.8707505617041073,1.9076113868207782
6,1,28.07087049074471,0.7486116548534483,1,66,29.83920598961413,59,29.08901329827495,1.11864406779661,0.07763085599166919,0.9223691440083308,2.4749805396252227,0,24.084914139239118,0.19848604523576796,1,87,25.303238991415128,76,25.103258033283055,1.144736842105263,1,21.914979589171708,0.014874463202431798,0,10,22.949694834649563,44,22.933357063448057,0.22727272727272727,1,26.3841069098562,1.3157695541158319,1,58,28.70327596901916,58,27.385997674660757,1.0,0.1342752958360558,0.8657247041639442,1.8636748254490973
7,1,32.34002791508101,0.581908313324675,1,14,33.925286745652556,57,33.34178751939908,0.24561403508771928,0.00021194504572696893,0.999788054954273,8.458971567654887,1,27.803949904628098,0.33176164678297937,1,97,29.15576448175125,61,28.8224352307152,1.5901639344262295,1,25.449881501263008,0.09831936843693256,0,33,26.5512938068714,25,26.45172130316496,1.32,1,31.20400742557831,1.5660920233931392,1,72,33.77342586731538,51,32.205853548133746,1.411764705882353,0.08545800565009898,0.914541994349901,2.3703982940381687
8,1,36.42603202932514,0.8489189732354134,0,82,38.278533816104755,40,37.427764769410715,2.05,0.9097224069891009,0.09027759301089908,-2.3102502154927143,0,31.656601814785972,0.4650929521303624,1,45,33.12514720973559,42,32.65848546824418,1.0714285714285714,0,29.052346053533256,0.03150181472301483,0,53,30.10368430474773,57,30.07083572517149,0.9298245614035088,1,36.274180237203836,1.015617968980223,1,87,38.29319810634479,89,37.275916137732565,0.9775280898876404,0.06980626981971816,0.9301937301802818,2.5896690452435203
9,0,40.77891050721519,0.515214413870126,1,60,42.2976184503641,70,41.780853420030326,0.8571428571428571,0.007759659293782084,0.9922403407062179,4.851026929086988,0,35.62594503676519,0.03157095052301884,1,43,36.67755864583887,7,36.64441337506287,6.142857142857143,0,32.60517190909013,0.06389844394288957,0,86,33.68979528313503,59,33.624426420079544,1.4576271186440677,0,40.79394299490377,1.432414643932134,1,87,43.229731464758515,76,41.795790302800015,1.144736842105263,0.06403551456333922,0.9359644854366608,2.682139688344767
10,1,44.79815277131274,1.3658285960555077,1,62,47.16759144002572,43,45.80018457281403,1.441860465116279,0.36424301402654224,0.6357569859734578,0.5569951269671995,1,39.178235188825056,0.19833315629512072,1,26,40.38010928197764,84,40.180102249840274,0.30952380952380953,1,36.19038688787259,0.015151796629652381,0,16,37.208585794083774,10,37.19218915863894,1.6,1,45.73050953843631,1.4325868908781558,1,43,48.16637702053413,93,46.73228968586773,0.46236559139784944,0.24505802965372347,0.7549419703462765,1.125145847598279
11,0,49.66820911876857,1.1823153849691153,1,45,51.854051613248885,60,50.67016269825399,0.75,0.005692469650773413,0.9943075303492266,5.162902357974855,1,42.88074829406105,0.33177626389078796,1,6,44.23245185869746,8,43.89913129922934,0.75,0,39.7095009542536,0.048290351405739784,0,50,40.760765329003334,7,40.71122658322565,7.142857142857143,1,50.66892180964351,1.281233666697517,1,74,52.97013374022208,60,51.68713375320658,1.2333333333333334,0.08535975338002544,0.9146402466199746,2.3716560970554266
12,1,54.35469457600266,0.5653508878313005,1,53,55.923491190886125,55,55.35649605677463,0.9636363636363636,0.03089807685952284,0.9691019231404772,3.4456758457878682,1,46.73332514241338,0.315142591483891,1,55,48.05179612780921,95,47.73506696894765,0.5789473684210527,0,43.261846415000036,0.11477249767631292,0,45,44.3796881462913,92,44.26375377248041,0.4891304347826087,0,55.470623418921605,0.4483225883450359,1,55,56.93923557945527,60,56.48918301658705,0.9166666666666666,0.14785373685463854,0.8521462631453615,1.7515346618409522
13,0,58.42430877080187,0.5968760109972209,1,7,60.02613371820189,54,59.42766758427024,0.12962962962962962,0.00014269512965914277,0.9998573048703409,8.854657458681267,1,50.552633460611105,0.3151335050351918,1,41,51.87100133486092,7,51.554427040275186,5.857142857142857,1,46.88080755318515,0.06469172751531005,0,56,47.94898490910418,46,47.88304676231928,1.2173913043478262,0,59.44190836860798,0.9321110390592366,1,38,61.39218986965716,43,60.458384016295895,0.8837209302325582,0.21121581618981788,0.7887841838101821,1.3176123158462316
14,1,62.526860038982704,0.8819532319903374,1,17,64.41228112112731,82,63.52892502583563,0.2073170731707317,7.148620444930032e-06,0.9999928513795551,11.848584015993628,1,54.371759260538965,0.3652142754290253,1,40,55.740385287674144,93,55.37352163018659,0.43010752688172044,1,50.450067970436066,0.048305758740752935,0,45,51.50138883898035,40,51.45180150051601,1.125,1,63.89297861000523,0.748564247507602,1,10,65.66175973857753,44,64.91150186210871,0.22727272727272727,0.40212083945169086,0.5978791605483091,0.3966360217693378
15,0,66.91321129375137,0.5987565042451024,1,6,68.53189154318534,26,67.93159390357323,0.23076923076923078,0.008383365281523947,0.991616634718476,4.77308715686638,0,58.241053534438834,0.2983382523525506,1,56,59.54263050178997,59,59.24282222497277,0.9491525423728814,1,54.005157528910786,0.04870635108090937,0,97,55.07035809569061,61,55.02055228827521,1.5901639344262295,1,68.16241613333113,0.7152305322233588,1,33,69.89784537348896,25,69.18103854567744,1.32,0.21713198237783593,0.7828680176221641,1.2824587395372666
16,0,71.03256216016598,1.2804949013516307,1,7,73.31837577559054,54,72.03627336840145,0.12962962962962962,0.00014269512965914277,0.9998573048703409,8.854657458681267,0,62.04461311828345,0.29453538986854255,1,7,63.34562119678594,54,63.04937519039959,0.12962962962962962,0,57.57160708284937,0.014987055910751224,0,62,58.606425834586844,17,58.59011848294176,3.6470588235294117,1,72.3987174720969,0.5311697653960437,1,52,73.95049680955708,68,73.41760497074574,0.7647058823529411,0.16844113617932477,0.8315588638206752,1.596715739878384
17,0,75.81908352836035,1.3492067756596953,1,77,78.17170679639094,72,76.82089370046742,1.0694444444444444,0.04324103465979012,0.9567589653402099,3.0967615740944114,1,65.84631156688556,0.1318751082289964,1,45,66.99835891416296,40,66.8648103249725,1.125,0,61.107384451432154,0.07938288222067058,0,71,62.20868613990024,69,62.12783046811819,1.0289855072463767,1,76.45109038962983,0.832201152574271,1,40,78.28666694834828,93,77.45290648774244,0.43010752688172044,0.26362110277968576,0.7363788972203142,1.0272319367749407
18,1,80.6723675369285,0.7821895179804415,1,25,82.45788228837773,37,81.67409158567898,0.6756756756756757,0.01586104618192241,0.9841389538180776,4.127900922729931,1,69.49892484000884,0.2814758394379169,1,54,70.80047533800825,78,70.51733036362566,0.6923076923076923,0,64.70944050978869,0.09807206015102565,0,37,65.81107009924017,52,65.71166510158218,0.7115384615384616,1,80.78727554064244,1.382627799641341,1,14,83.17335617844947,8,81.78910704609007,1.75,0.31361760957382323,0.6863823904261768,0.7832604529936533
19,0,84.95858530048281,1.4159062060061842,1,53,87.3777329865843,57,85.96039073192514,0.9298245614035088,0.02307074949537613,0.9769292505046239,3.7458486748420885,1,73.30120837478898,0.34844588697887957,1,66,74.65282226074487,59,74.30295849754475,1.11864406779661,0,68.31190940761007,0.08160549867898226,0,58,69.39692784310319,58,69.31396491313353,1.0,0,85.67399914097041,1.9161924282088876,1,56,88.59315018542111,59,86.67572595528327,0.9491525423728814,0.1429151580655269,0.8570848419344731,1.7912857585078015
20,0,96.9013843354769,1.0982917144428939,1,28,99.01806102995761,18,97.91861810628325,1.5555555555555556,0.28624102556670394,0.7137589744332961,0.9137111318830796,1,84.17648309073411,0.5483557339757681,1,72,85.74378084205091,51,85.19376861490309,1.411764705882353,0,78.90387914911844,0.014763055834919214,0,78,79.93720614840277,34,79.92111252504401,2.2941176470588234,1,98.11780222505331,1.115242226049304,1,26,100.25178656703793,84,99.13479619356804,0.30952380952380953,0.34653197913119715,0.6534680208688028,0.634318490464329
21,1,101.51970389345661,0.6321285404264927,1,74,103.17176250019111,60,102.53813114552759,1.2333333333333334,0.15999402762339132,0.8400059723766087,1.6582725146008972,0,88.24679219885729,0.1131721034180373,1,45,89.37962375138886,60,89.26472246344201,0.75,0,82.43825602438301,0.014523648656904697,0,28,83.47277610958554,18,83.45694520231336,1.5555555555555556,1,102.7520589621272,0.5484363264404237,1,19,104.30413538590074,37,103.75404217117466,0.5135135135135135,0.3229670494997503,0.6770329505002497,0.7401696389861779
22,0,105.67344407970086,0.7973278826102614,1,71,107.49152731220238,69,106.69249829440378,1.0289855072463767,0.03319498068537563,0.9668050193146244,3.3715981601766662,0,91.88057565223426,0.38156152819283307,1,62,93.2823327279184,16,92.89906334853731,3.875,0,85.97501354082488,0.08156994311138988,0,80,87.07531335297972,60,86.9924136325717,1.3333333333333333,1,106.8049596818164,0.8658679048530757,1,3,108.69100812193938,18,107.82323444006033,0.16666666666666666,0.41262809045553783,0.5873719095444622,0.3531115160507102
23,0,109.99370864452794,1.0304505557287484,1,38,112.04445667401887,43,111.01234488422051,0.8837209302325582,0.030549578531677835,0.9694504214683222,3.457378445621506,1,95.7829294684343,0.3150090607814491,1,17,97.10140479938127,82,96.78474082588218,0.2073170731707317,0,89.57629369827919,0.08147986908443272,0,6,90.66106917103752,26,90.5782472777646,0.23076923076923078,0,111.191041899845,1.866151164053008,0,53,114.06075138342567,15,112.19293226930313,3.533333333333333,0.11853788499619788,0.8814621150038021,2.006349408950225
24,1,114.54510082188062,0.6322245402261615,1,3,116.19720881106332,18,115.56334753055125,0.16666666666666666,0.01917204656208671,0.9808279534379133,3.934943755481312,0,99.60220302129164,0.23169176024384797,1,14,100.85389793431386,57,100.62057417468168,0.24561403508771928,0,93.16200724476948,0.09803531924262643,0,12,94.26352542685345,23,94.16413820674643,0.5217391304347826,1,116.56138012371957,1.2990402767900378,1,53,118.88058473845012,55,117.57995315361768,0.9636363636363636,0.15163632465356058,0.8483636753464394,1.7218243532540782
25,0,118.69773088488728,0.6958199720829725,1,78,120.39996389159933,65,119.70258421637118,1.2,0.12727089393381208,0.8727291060661879,1.925307367460724,0,103.35460173641331,0.28170378995127976,1,71,104.6396975251846,69,104.3563775382936,1.0289855072463767,0,96.7644022658933,0.0814846099819988,0,45,97.84903907193802,42,97.76627604290843,1.0714285714285714,0,121.38134819502011,1.94642372475937,1,62,124.3510039106477,17,122.40293198893778,3.6470588235294117,0.09230041030749181,0.9076995896925082,2.2858648886354316
26,0,122.90074512572028,0.8476693935226649,1,80,124.76952423923649,60,123.92033780924976,1.3333333333333333,0.28228067865811757,0.7177193213418824,0.9331766849373212,1,107.14256784482859,0.4816539331804961,1,24,108.6423254746478,69,108.15899766562507,0.34782608695652173,1,100.35006682458334,0.08153280732221901,0,46,101.43463963083923,36,101.35185171291232,1.2777777777777777,0,126.85152519447729,1.916155687533319,0,15,129.78773460234515,42,127.87004015012644,0.35714285714285715,0.3603023446644438,0.6396976553355562,0.5740521259263757
27,0,127.27035248582251,0.797220820793882,0,62,129.07260441593826,17,128.27373895375058,3.6470588235294117,0.9659490004502775,0.03405099954972249,-3.3452516507376293,0,111.14313357300125,0.4004395455121994,1,9,112.54703820357099,7,112.14494769577868,1.2857142857142858,1,103.9363883708138,0.04829904274083674,0,14,105.00385382561944,57,104.95427083293907,0.24561403508771928,1,132.28855850314721,1.4991599014028907,0,43,134.79108077380806,97,133.29031850257888,0.44329896907216493,0.2503599750776744,0.7496400249223256,1.0966933420286642
28,1,131.57295661326498,1.1990983905270696,1,56,133.77561134798452,46,132.5750038223341,1.2173913043478262,0.15028721017766178,0.8497127898223382,1.732350200212103,1,115.04584966087714,0.21509048296138644,1,43,116.2808895681519,93,116.06427177716978,0.46236559139784944,0,107.50485550425947,0.09833438089117408,0,7,108.60623580985703,54,108.50671229371801,0.12962962962962962,1,137.2918979586102,0.7489249387290329,1,15,139.0608521241229,42,138.31030861800537,0.35714285714285715,0.3603023446644438,0.6396976553355562,0.5740521259263757
29,0,136.27633055765182,0.8821626144926995,1,15,138.16183618316427,42,137.27810951997526,0.35714285714285715,0.0022674575958786525,0.9977325424041213,6.086826044804721,1,118.78154675289989,0.282332728151232,1,87,120.06715454137884,89,119.7834142090287,0.9775280898876404,0,111.10760924150236,0.031572530744597316,0,51,112.15862591261975,7,112.1257520490326,7.285714285714286,1,141.56158713600598,0.7322948218788952,1,56,143.3136457032524,46,142.57980777090415,1.2173913043478262,0.1319580010125606,0.8680419989874394,1.8837564016090491
30,0,140.66253445437178,1.0154101666994393,1,14,142.69822945259511,57,141.68105652113445,0.24561403508771928,0.00021194504572696893,0.999788054954273,8.458971567654887,1,122.56787375104614,0.23206232814118266,1,25,123.81919770105742,37,123.58555552177131,0.6756756756756757,1,114.65963746793568,0.014954660786315799,0,14,115.67770600388758,8,115.6614768744912,1.75,1,145.81443997449242,2.566659331554547,1,50,149.40103766857646,62,146.83279651030898,0.8064516129032258,0.17163005116016228,0.8283699488398377,1.574118557683915
31,0,145.19895142759196,1.5658455048687756,0,40,147.78478744323365,15,146.21743122278713,2.6666666666666665,0.7284434853371287,0.2715565146628714,-0.9867397710253994,1,126.31996471318416,0.13172933063469827,1,42,127.47156287543476,39,127.338367076125,1.0769230769230769,0,118.17879064544104,0.015113475499674678,0,22,119.21350431069732,31,119.19711597147398,0.7096774193548387,0,151.9029890752863,2.049942893907428,1,71,154.97245393670164,69,152.92017622897401,1.0289855072463767,0.09888065862091144,0.9011193413790886,2.209724048700456
32,0,150.28626833157614,0.6153143248520792,1,58,151.92110106837936,58,151.3041247194633,1.0,0.035857423611295625,0.9641425763887044,3.291688564649549,1,129.9724768504966,0.28148571588099003,1,15,131.2575003427919,19,130.97442726930603,0.7894736842105263,1,121.714431717759,0.08170189359225333,0,3,122.79907286958769,18,122.71617393940687,0.16666666666666666,1,157.47205354180187,1.5994624791201204,0,14,160.07494397019036,57,158.47383052879013,0.24561403508771928,0.39300045788069515,0.6069995421193048,0.4347172597658745
33,1,154.42178274714388,0.8991135214455426,1,28,156.34068332239985,82,155.44009582628496,0.34146341463414637,2.7010937728833007e-05,0.9999729890622712,10.519241661620809,1,133.75829026824795,0.431816125754267,1,14,135.1934466396924,57,134.76005777390674,0.24561403508771928,0,125.30014763446525,0.03159149386920035,0,62,126.33476016414352,17,126.30190723878331,3.6470588235294117,1,162.57548224180937,1.4491182423662394,0,4,165.02808848256245,22,163.5773204632569,0.18181818181818182,0.41161404779915767,0.5883859522008423,0.35729698075554167
34,0,158.84135789005086,0.782082851510495,1,71,160.64318828913383,64,159.8596919074189,1.109375,0.0677885675339458,0.9322114324660542,2.6211660875411185,1,137.69468140462413,0.36462286836467683,1,4,139.0629115800839,22,138.69744762568735,0.18181818181818182,1,128.83571720076725,0.13165979972109199,0,72,129.9705386783462,51,129.83754199021496,1.411764705882353,1,167.52884127246216,1.182380569865927,1,16,169.7146636187099,10,168.5306644816883,1.6,0.30273448563088745,0.6972655143691125,0.8343101407577383
35,1,163.14405683218502,0.7987856597173959,1,33,164.94632535474375,25,164.14588912762702,1.32,0.20422900550647471,0.7957709944935253,1.3600695088531938,0,141.563505950151,0.34844707208685577,1,60,142.91533711994998,61,142.56526831979863,0.9836065573770492,1,132.47236840589903,0.08173547382466495,0,42,133.5729700452648,39,133.48996168305166,1.0769230769230769,0,172.21532001369633,1.54942279541865,0,58,174.76809846190736,58,173.21706223511137,1.0,0.1342752958360558,0.8657247041639442,1.8636748254490973
36,0,167.4470639221836,0.784022998996079,1,9,169.23457729024813,7,168.44901276100427,1.2857142857142858,0.1738049247558866,0.8261950752441134,1.5588973660195418,0,145.41618590964936,0.46533433464355767,1,78,146.90144635993056,65,146.4344523716718,1.2,0,136.07410011882894,0.015059747267514467,0,24,137.10837803129107,90,137.09240845730528,0.26666666666666666,1,177.2685782641638,1.3491731954272836,1,97,179.62137417425402,61,178.27040107827634,1.5901639344262295,0.042483943442380045,0.95751605655762,3.1152162869752815
37,1,171.73333146353252,0.7821752957534045,1,72,173.53524561575614,51,172.7516188637819,1.411764705882353,0.36605156804493655,0.6339484319550635,0.549193393744777,1,149.40517554362305,0.28188551822677255,1,56,150.70397878368385,46,150.4204735129606,1.2173913043478262,1,139.60996203054674,0.09821151685900986,0,82,140.71126095368527,40,140.6117836595513,2.05,0,182.12180577893741,2.566692912019789,0,59,185.69188397354446,65,183.12368982750922,0.9076923076923077,0.1362818996304629,0.8637181003695371,1.8465209109767178
38,0,176.03711168910377,1.2474152108188719,0,95,178.30534941027872,16,177.05636936053634,5.9375,0.9994379542648754,0.0005620457351245895,-7.483365128414408,0,153.20469285733998,0.3818613800685853,1,51,154.58987631020136,7,154.20640031364746,7.285714285714286,1,143.21209986694157,0.11493486817926168,0,26,144.3467822826933,84,144.23058795835823,0.30952380952380953,0,188.19298955332488,1.6653382061049342,0,53,190.86187225207686,57,189.19506204640493,0.9298245614035088,0.1534755127611439,0.8465244872388561,1.7075981004692713
39,1,180.8060678297188,0.5799519685097039,1,19,182.40808122162707,37,181.82650594529696,0.5135135135135135,0.007744507440208825,0.9922554925597912,4.852996752393504,1,157.0906271247659,0.29828847479075193,1,75,158.39243520307355,70,158.09246574132703,1.0714285714285714,0,146.849683417473,0.014925426337867975,0,60,147.88283461425453,61,147.86660350952297,0.9836065573770492,1,193.36269536288455,1.5159914998803288,1,32,195.88221752783284,16,194.36458889301866,2.0,0.21184516513660356,0.7881548348633964,1.313838906794453
40,1,191.91470186086372,0.8485989733599126,1,43,193.78244196251035,97,192.9323765207082,0.44329896907216493,1.7421321526156497e-05,0.9999825786784738,10.957798305363317,1,167.8999269530177,0.5481337092351168,1,98,169.46645354409702,73,168.91668665013276,1.3424657534246576,1,157.40673801209778,0.045675043715164065,0,50,158.47335487464443,62,158.4263200291898,0.8064516129032258,0,205.40664201206528,1.3972837936598808,1,60,207.82337429188192,70,206.42453514086083,0.8571428571428571,0.13662687928300765,0.8633731207169923,1.8435932492891456
41,0,196.28302882658318,0.9993837040383369,1,96,198.28668551659212,89,197.28478606045246,1.0786516853932584,0.03382666598115436,0.9661733340188456,3.3520938271206067,0,171.967217000667,0.39864004007540643,1,87,173.3691186690703,85,172.96896949387155,1.0235294117647058,0,160.9743711706251,0.07732895691879094,0,15,162.07528648874722,42,161.99674271745607,0.35714285714285715,0,210.32534663681872,1.8490568497218192,0,45,213.19371291110292,60,211.34376559243537,0.75,0.19385472043172525,0.8061452795682748,1.4251549590964914
42,1,200.78789973817766,0.6654519839212298,1,75,202.4715186287649,70,201.8049367684871,1.0714285714285714,0.04572584392221979,0.9542741560777802,3.038287354928054,1,175.86986592807807,0.3959311028011143,1,12,177.269219054142,9,176.8716369890608,1.3333333333333333,0,164.5766054019332,0.03047149395570159,0,71,165.62966098589823,64,165.59793122066185,1.109375,1,215.69475686131045,2.149096237262711,0,15,218.86494385567494,19,216.71363724884577,0.7894736842105263,0.32351735502665946,0.6764826449733405,0.7376540329516594
43,1,204.97341670189053,1.11490681883879,1,6,207.1085838584695,8,205.99174597859383,0.75,0.11189473688635065,0.8881052631136493,2.071531695378439,1,179.77229204052128,0.34813181310892105,1,43,181.12439264217392,97,180.77455811365508,0.44329896907216493,0,168.12870671460405,0.14810937363654375,0,35,169.28011445724405,62,169.1307428618893,0.5645161290322581,1,221.36524311476387,0.6814954343717545,1,69,223.0509036835283,61,222.36755620036274,1.1311475409836065,0.0996290443533755,0.9003709556466245,2.2013531192907942
44,0,209.60869822883978,0.8485069239977747,1,45,211.46110915136524,92,210.6109714130871,0.4891304347826087,4.698347530085467e-05,0.9999530165246991,9.965667622840698,0,183.62729219673201,0.31510980147868395,1,7,184.96025008987635,54,184.64356043701991,0.12962962962962962,0,171.78147287643515,0.06210960494354367,0,40,172.86595876910724,15,172.80258536199108,2.6666666666666665,1,225.55129933776334,0.6985261437948793,1,42,227.27017391775735,39,226.56980086117983,1.0769230769230769,0.1859389903613048,0.8140610096386952,1.4766167025136299
45,0,213.96168613876216,1.01570606790483,0,62,215.99731674185023,16,214.97993679810315,3.875,0.9705548316419913,0.029445168358008665,-3.495338065264738,0,187.46095665730536,0.3319809059612453,1,41,188.81284985179082,22,188.47917768731713,1.8636363636363635,0,175.3671469166875,0.09538880200125277,0,60,176.4850265737623,70,176.3883569824975,0.8571428571428571,0,229.7704992510844,1.782658456126228,0,22,232.5731956253294,31,230.78905015741475,0.7096774193548387,0.2930198348352895,0.7069801651647105,0.8807623081639381
46,1,218.49793205037713,0.6985403660219163,1,37,220.2000994766131,54,219.4999492347706,0.6851851851851852,0.005329371667425087,0.9946706283325749,5.229178310363616,1,191.3135520736687,0.33368836203590035,1,58,192.65049692825414,6,192.31527375197038,9.666666666666666,1,178.98601916595362,0.06513301120139658,0,43,180.05423089209944,97,179.98786805430427,0.44329896907216493,0,235.07404836569913,1.8143629375845194,1,95,237.89402394299395,16,236.07782633951865,5.9375,0.03324531138766573,0.9667546886123343,3.3700310340845547
47,1,222.70083093317226,0.5153108087833971,1,55,224.21964554302394,95,223.70275764842518,0.5789473684210527,0.00010028102102010994,0.9998997189789799,9.207433816984155,1,195.14940320025198,0.3149162211921066,1,74,196.46787655586377,60,196.1513836439699,1.2333333333333334,0,182.5551863485016,0.19861127948388457,0,77,183.77350685489364,72,183.57365113147534,1.0694444444444444,0,240.394593029283,1.715347865363583,1,86,243.13055481249467,59,241.41337267612107,1.4576271186440677,0.05894344206694491,0.9410565579330551,2.7704248667411835
48,1,226.72009136993438,0.7150602606125176,1,42,228.43883439456113,39,227.7222262825817,1.0769230769230769,0.0852053360345435,0.9147946639654565,2.3736355677373533,0,198.9686360617634,0.34862445504404604,1,50,200.32061103382148,7,199.97042292519473,7.142857142857143,0,186.27442636084743,0.04817657358944416,0,12,187.34223828464746,3,187.29281331645325,4.0,0,245.6318413305562,1.1136062759906054,1,41,247.7504676540848,22,246.63518631691113,1.8636363636363635,0.17294438387290645,0.8270556161270936,1.5649018809100452
49,1,230.93972585117444,0.5159334258642048,1,15,232.45896159647964,42,231.9415265417192,0.35714285714285715,0.0022674575958786525,0.9977325424041213,6.086826044804721,0,202.82130337925628,0.41510462621226907,1,12,204.23978143604472,3,203.82307325513102,4.0,1,189.843452506233,0.09844302292913198,0,46,190.9612578919623,40,190.86166761023924,1.15,0,250.2508048391901,1.5820513255894184,1,43,252.83710228651762,7,251.2533383690752,6.142857142857143,0.14971033873241313,0.8502896612675869,1.736874717344993
50,1,234.95922767044976,0.49846143275499344,1,10,236.46100287977606,44,235.9610252007842,0.22727272727272727,0.0009190547369972712,0.9990809452630027,6.991245398578657,0,206.74049471970648,0.46535764331929386,1,6,208.20906342356466,26,207.74230133648962,0.23076923076923078,1,193.4624254964292,0.04830891918390989,0,54,194.51372542674653,31,194.4641645574011,1.7419354838709677,1,255.33765715057962,2.04951622732915,0,15,258.390664141858,56,256.3395253967028,0.26785714285714285,0.38355919031720986,0.6164408096827901,0.4744683564327242
51,1,238.96165097830817,1.0990016399882734,1,32,241.06412955513224,16,239.9634552244097,2.0,0.46751057161050924,0.5324894283894908,0.13014108305314412,0,210.70943616423756,0.46500169299542904,1,14,212.17836516420357,7,211.71180811384693,2.0,1,197.0148080929648,0.04851356102153659,0,40,198.06604481348768,93,198.01633974676952,0.43010752688172044,0,260.8913556970656,1.4794621316250414,1,45,263.39399925176986,42,261.9129280343186,1.0714285714285714,0.17462583261496545,0.8253741673850346,1.5531912341597574
52,1,243.5648163696751,1.2488208399154246,0,46,245.81704145506956,36,244.56676718359813,1.2777777777777777,0.1915485843887229,0.8084514156112771,1.4399791043803083,1,214.67988911410794,0.38163224421441555,1,15,216.0811373507604,42,215.6978328106925,0.35714285714285715,1,200.56724204751663,0.06503306049853563,0,15,201.65181406354532,19,201.58555354643613,0.7894736842105263,0,265.894627597183,1.0990533928852528,0,28,267.99702676641755,18,266.89644448529,1.5555555555555556,0.2370247959413161,0.7629752040586839,1.1690607729118618
53,0,248.31790209678002,0.4983693833928555,1,45,249.81912896037102,42,249.3197976022493,1.0714285714285714,0.07861272234954308,0.9213872776504569,2.46134689648689,1,218.58174594305456,0.44861098332330585,1,46,220.03358971513808,40,219.58348579425365,1.15,1,204.1528252235148,0.06530130747705698,0,32,205.22109897434711,16,205.15459667961113,2.0,0,270.4978435563389,1.1157123493030667,1,62,272.6168139784131,17,271.4995664197486,3.6470588235294117,0.09230041030749181,0.9076995896925082,2.2858648886354316
54,1,252.32068609562702,0.5652015544474125,1,87,253.88938908092678,89,253.32253735419363,0.9775280898876404,0.011661440772881781,0.9883385592271182,4.43973757161596,0,222.5344511468429,0.34836529451422393,1,35,223.88633406953886,62,223.53632531897165,0.5645161290322581,0,207.72199398628436,0.031653913436457515,0,62,208.7566523430869,16,208.72372988704592,3.875,0,275.1176351138856,1.5826289055403322,1,28,277.72081828303635,41,276.13638710649684,0.6829268292682927,0.2678694978927554,0.7321305021072446,1.0054588658865777
55,0,256.38998700655065,0.4953949647024274,1,35,257.89201149949804,62,257.39503747364506,0.5645161290322581,0.0012648093920123449,0.9987351906079877,6.671568236468364,1,226.3870062669739,0.41515795956365764,1,14,227.82216895907186,8,227.40545011148788,1.75,1,211.25764216994867,0.08170742448419333,0,17,212.34237734624185,82,212.2594349591527,0.2073170731707317,0,280.22107013477944,1.8996472493745387,1,96,283.1407667591702,89,281.23949580662884,1.0786516853932584,0.0529797466629337,0.9470202533370663,2.883410777713536
56,1,260.3937788074836,0.6984736006706953,1,98,262.1120509188622,73,261.41171815851703,1.3424657534246576,0.3298170595544664,0.6701829404455336,0.7090125847990059,1,230.323023279896,0.39674571994692087,1,58,231.74144879356027,58,231.34330337052234,1.0,1,214.84415334556252,0.031830505933612585,0,4,215.89490690571256,22,215.86176558560692,0.18181818181818182,1,285.6413314996753,1.6160775837488472,1,53,288.26080858823843,40,286.6430887335446,1.325,0.1384145287315629,0.8615854712684371,1.8285212491401321
57,0,264.6124584248755,0.6314233555458486,1,60,266.2475728406571,40,265.61459412775,1.5,0.4137621037932643,0.5862378962067357,0.34843449327373194,0,234.24227901548147,0.39822206483222544,1,62,235.6441933256574,17,235.24441471835598,3.6470588235294117,0,218.39583115233108,0.09823759086430073,0,9,219.49680217402056,7,219.3976630528923,1.2857142857142858,1,290.76149658788927,0.9491958718281239,1,62,292.7316176861059,43,291.7799258152954,1.441860465116279,0.10900708433468764,0.8909929156653124,2.100923602432936
58,0,268.74833511188626,0.8487151216249913,0,50,270.6004809481092,7,269.75017017289065,7.142857142857143,0.9675769114022827,0.03242308859771729,-3.395924136681564,1,238.14488764642738,0.4320081255864352,1,50,239.59691670257598,62,239.16328329360113,0.8064516129032258,1,221.9999312593136,0.04784274660050869,0,62,223.0666381958872,43,223.01732028950937,1.441860465116279,1,295.23316059913486,0.9318933603353798,1,42,297.18349385331385,67,296.24993412336335,0.6268656716417911,0.21798474520882005,0.78201525479118,1.277449163526328
59,1,273.10137240448967,0.5318125304765999,1,4,274.6533488777932,22,274.1198194096796,0.18181818181818182,0.011956636481664229,0.9880433635183358,4.4144401086458105,0,242.0974569490645,0.34844391187652946,1,62,243.44936910644174,17,243.09934218297713,3.6470588235294117,1,225.56744787469506,0.031494703609496355,0,58,226.61861269385554,6,226.58581389207393,9.666666666666666,0,299.6841786925215,1.3155641222838312,1,87,302.0034670601599,85,300.6862385435961,1.0235294117647058,0.06798121514171607,0.9320187848582839,2.618121550813134
60,0,284.176686152583,1.2803906050976366,0,62,286.47754252748564,17,285.19597621890716,3.6470588235294117,0.9659490004502775,0.03405099954972249,-3.3452516507376293,0,252.95627063466236,0.36440400406718254,1,55,254.33983156946488,60,253.97412623255514,0.9166666666666666,1,236.12562641943805,0.031490357825532556,0,75,237.175973856356,70,237.1431639927905,1.0714285714285714,1,311.52637490304187,1.9471699960995466,1,37,314.4780632185284,54,312.52934576617554,0.6851851851851852,0.23028015904559185,0.7697198409544082,1.2067299552553448
61,0,288.97875121841207,0.6649711939971894,1,24,290.6471385098994,90,289.9808430694975,0.26666666666666666,5.013705922096712e-06,0.9999949862940779,12.203330197586599,0,256.8407664827537,0.6319792070426047,1,77,258.4927930892445,72,257.8591980803758,1.0694444444444444,0,239.67685069562867,0.031869221944361925,0,60,240.72821423085406,40,240.69506579940207,1.5,0,316.97885472420603,0.9655980381648988,1,51,318.94780999585055,7,317.98063329141587,7.285714285714286,0.11941533214177669,0.8805846678582233,1.9979784795405617
62,1,293.1481500649825,0.5987493931315839,1,15,294.7666086850222,19,294.16664842818864,0.7894736842105263,0.06692965134254936,0.9330703486574506,2.6348385106812717,1,260.9945007429924,0.44637809530831873,1,32,262.46262974315323,16,262.0143300683703,2.0,0,243.22924237861298,0.048189215594902635,0,54,244.29703454929404,80,244.2475436059758,0.675,0,321.4487310817931,2.3997841384261847,1,80,324.86854918766767,60,322.46713146963157,1.3333333333333333,0.0712606452729534,0.9287393547270466,2.5674839187021035
63,0,297.267406511819,0.6491805829573423,1,87,298.9194860565476,76,298.2691341161262,1.144736842105263,0.07666023273477152,0.9233397672652285,2.4886141827635564,0,264.96282628620975,0.5819569060113281,1,71,266.5648562707938,64,265.9812728962861,1.109375,1,246.7981555366423,0.0649611596018076,0,37,247.86620647273958,54,247.80002615321428,0.6851851851851852,0,327.3691933355294,0.9823367970529944,1,50,329.3548123042565,7,328.370995211415,7.142857142857143,0.12289024322805986,0.8771097567719401,1.9653405092661158
64,0,301.4203431427013,0.7466912607196718,1,87,303.1720552407205,85,302.42404803005047,1.0235294117647058,0.02105387640498002,0.97894612359502,3.8393919135075305,1,269.0654016532935,0.38187125651165843,1,88,270.4508600689005,96,270.06738841789775,0.9166666666666666,0,250.36728913895786,0.031597419641911983,0,14,251.41861751372926,7,251.38576340326108,2.0,1,331.85553151369095,2.2997746963519603,1,25,335.15876536932774,37,332.8573732909281,0.6756756756756757,0.2817095454386124,0.7182904545613876,0.9359974606328542
65,1,305.673088129377,0.8321837701369077,1,14,307.5084454289172,8,306.6750160297379,1.75,0.24885332807448102,0.751146671925519,1.1047372558270034,1,272.9515761178918,0.4485734524205327,1,69,274.40381811209954,61,273.9533693024423,1.1311475409836065,1,253.91960299480706,0.16501089767552912,0,98,255.08770169387572,73,254.92141040135175,1.3424657534246576,1,337.65946601098403,1.282368678599596,1,58,339.96202115062624,6,338.6779971641954,9.666666666666666,0.09677723749003919,0.9032227625099608,2.233557397854088
66,0,310.00950992223807,0.5320171725470573,1,12,311.5610944945365,23,311.02781233470887,0.5217391304347826,0.026655772091697782,0.9733442279083022,3.5977320836214957,1,276.90430384036154,0.18161770584993064,1,28,278.08920174255036,82,277.9065280370414,0.34146341463414637,1,257.5888001625426,0.03142596292309463,0,28,258.62344903778285,82,258.5906885568984,0.34146341463414637,1,342.46257640980184,2.066603035433218,1,46,345.5330518386327,36,343.46475596446544,1.2777777777777777,0.16403485789511452,0.8359651421048855,1.628507962788625
67,0,314.0619875311386,0.7655665124766529,1,14,315.83067542500794,7,315.06379849347286,2.0,0.27795046277468627,0.7220495372253137,0.9546508412998943,1,280.5907964084763,0.48190677259117365,1,15,282.092124408111,56,281.6086061792448,0.26785714285714285,1,261.1244281977415,0.09818544262088835,0,66,262.22602618229575,59,262.12641456746496,1.11864406779661,1,348.033165023895,1.5159393516369164,0,6,350.56908382452093,8,349.05152195482515,0.75,0.37234806569413303,0.627651934305867,0.5221566907980851
68,0,318.3314890542533,0.6154518062248826,1,59,319.94980189646594,65,319.33328816480935,0.9076923076923077,0.014465121760489863,0.9855348782395101,4.221444161395379,1,284.5925899881404,0.33193231327459216,1,53,285.9279107444454,55,285.5944246540312,0.9636363636363636,0,264.72695121890865,0.0983426773454994,0,28,265.8448032217566,41,265.7452702240553,0.6829268292682927,0,353.06988678709604,1.5160661665722728,0,6,355.60586010618135,26,354.0881157182157,0.23076923076923078,0.40272578925917324,0.5972742107408268,0.39412041573481904
69,1,322.45107695763,0.6319365403614938,1,12,324.08628026233055,9,323.453035278013,1.3333333333333333,0.1829447863379381,0.8170552136620619,1.4965222802419706,1,288.4285604231991,0.33180154813453555,1,42,289.76384127838537,67,289.4303425459657,0.6268656716417911,0,268.34589062887244,0.08170386892743409,0,45,269.43073800276034,60,269.34780154167674,0.75,0,358.10653585917316,1.8664842008147389,0,7,360.9929287927225,54,359.12476834561676,0.12962962962962962,0.44334661978997914,0.5566533802100209,0.22759084702196308
70,1,326.5871424842626,0.5293303588405252,1,43,328.1221186679322,93,327.591602334287,0.46236559139784944,3.1754236704983896e-05,0.999968245763295,10.357452647259901,0,292.26447792025283,0.3653592630289495,1,38,293.6498182124924,43,293.2828340611886,0.8837209302325582,0,271.93158402713016,0.06502397428266704,0,68,272.9997329383623,63,272.9334578041453,1.0793650793650793,1,363.49354094080627,1.295450352365151,1,94,365.7957658090163,46,364.49885214841925,2.0434782608695654,0.042128092108810855,0.9578719078911891,3.123999272038
71,1,330.6231483959127,0.7318657850846648,1,69,332.3582086486276,61,331.6250703705009,1.1311475409836065,0.08221650440162709,0.9177834955983729,2.4126054538476516,1,296.15235470514745,0.0985307265073061,1,33,297.2689251282718,25,297.1687928221654,1.32,0,275.5008562959265,0.09834544267505407,0,53,276.6022251448594,15,276.50263486313634,3.533333333333333,0,368.2965347962454,1.2658578702248633,1,12,370.5658004677389,23,369.29831257346086,0.5217391304347826,0.3517655311563749,0.6482344688436251,0.6112876165587066
72,1,334.8594631666783,0.5819513751193881,1,58,336.4609740402084,58,335.8777450360358,1.0,0.035857423611295625,0.9641425763887044,3.291688564649549,1,299.7696249799337,0.48175506899133325,1,3,301.2713926830329,18,300.7879898122046,0.16666666666666666,1,279.10310000856407,0.0984461831394583,0,42,280.2045798697509,67,280.1048876622226,0.6268656716417911,1,373.06641814648174,1.2989308449905366,1,98,375.3688065703027,73,374.06825794815086,1.3424657534246576,0.044681009401206895,0.9553189905987931,3.062496740540888
73,0,338.96204643487,1.080723721301183,0,86,341.04750733939,59,339.9655818408355,1.4576271186440677,0.48550545211166385,0.5144945478883362,0.05799444074663503,1,303.7721703615971,0.4152650211472064,1,82,305.1908171097748,40,304.7739864597097,2.05,1,282.70558470883407,0.08169201714918017,0,43,283.8069405206479,93,283.7239301830996,0.46236559139784944,0,377.8700346192345,1.3491965038701892,1,71,380.2389123006724,64,378.88813436520286,1.109375,0.0957565425136413,0.9042434574863587,2.245289680662474
74,1,343.5487788449973,0.631829478777945,1,15,345.20023577287793,56,344.56719226995483,0.26785714285714285,0.000277882062787671,0.9997221179372123,8.188035848184144,1,307.6914411096368,0.36401249817572534,1,16,309.0608505439013,10,308.6948161206674,1.6,1,286.30815711291507,0.1480678920634091,0,53,287.47621709574014,40,287.32686762395315,1.325,0,382.73991634952836,2.5668299982789904,1,78,386.32658792031,34,383.75804849062115,2.2941176470588234,0.0637359207269006,0.9362640792730994,2.687149264355705
75,0,347.7012647106312,1.0155488334130496,0,43,349.71988870343193,7,348.70308791985735,6.142857142857143,0.9275721039664729,0.07242789603352702,-2.549979002074058,1,311.56158358068205,0.4317201259545982,1,52,313.0127399456687,68,312.5794154747855,0.7647058823529411,0,289.97733176196925,0.2814616172108799,0,55,291.26215614331886,60,290.97934855148196,0.9166666666666666,0,388.8290829316247,1.3324933007825166,1,40,391.17957642278634,15,389.8456241595559,2.6666666666666665,0.1705045282782579,0.8294954717217421,1.5820557953824255
76,1,352.22092396230437,0.8155552335083485,0,94,354.039533021627,46,353.2227483566385,2.0434782608695654,0.9458293743298934,0.054170625670106554,-2.859923387657214,0,315.5135357971303,0.09817082528024912,1,54,316.6155884976033,80,316.51551347528584,0.675,1,293.76409648824483,0.029712185729295015,0,15,294.8144861967303,56,294.7833367770072,0.26785714285714285,0,393.68044022493996,0.9489465879742056,1,62,395.6492730274331,16,394.6987137978431,3.875,0.09170619090106702,0.908293809098933,2.2929780150278347
77,1,356.54057183582336,0.8154086654540151,1,26,358.3756873579696,84,357.55899829789996,0.30952380952380953,1.5711324309664043e-05,0.9999842886756903,11.061113100560318,0,319.11596597894095,0.43164703948423266,1,28,320.567902590381,18,320.1344880457036,1.5555555555555556,1,297.31558940629475,0.08165764692239463,0,53,298.41669474891387,55,298.3338096458465,0.9636363636363636,1,398.15001317532733,1.2486667660996318,0,55,400.4021758409217,95,399.15201692748815,0.5789473684210527,0.18204175025306513,0.8179582497469349,1.502575238106825
78,1,360.87691698712297,0.83371502882801,1,54,362.7140461378731,78,361.87914829468355,0.6923076923076923,0.0011386028634866596,0.9988613971365133,6.776814074967373,0,323.0691033801995,0.7138604586943984,1,96,324.8038203243632,89,324.0884448045399,1.0786516853932584,1,300.9178260078188,0.031479691388085485,0,25,301.95240377192385,37,301.91963776014745,0.6756756756756757,0,402.90317633445375,1.149001422803849,1,9,405.0722279220354,7,403.9216995863244,1.2857142857142858,0.3481493928648979,0.6518506071351021,0.6271837280138272
79,1,365.2145531992428,1.0153927840292454,1,16,367.2485233587213,10,366.231816599844,1.6,0.23808423324738348,0.7619157667526165,1.1632114749933615,1,327.30464778095484,0.46518381615169346,1,46,328.7897482311819,36,328.32307937857695,1.2777777777777777,1,304.4534978950396,0.031631789868697524,0,54,305.4881740293931,78,305.4552448571194,0.6923076923076923,0,407.57463443954475,1.549353659618646,1,78,410.14239994366653,65,408.59148579090834,1.2,0.07823001318518352,0.9217699868148165,2.466642346191193
80,0,376.77221776917577,1.4822567971423268,0,53,379.2731329293456,15,377.78955346602015,3.533333333333333,0.9280944955108479,0.07190550448915209,-2.5577807352964816,0,338.3131451602094,0.5965927520301193,1,15,339.93062086682767,42,339.3325723130256,0.35714285714285715,0,314.9988606425468,0.3786048872862011,0,87,316.3935808816459,85,316.01352414279245,1.0235294117647058,0,419.66562186041847,1.4821643526665866,1,77,422.16702373628505,72,420.6832566189114,1.0694444444444444,0.08438452241482464,0.9156154775851754,2.3842124911699227
81,0,381.77418201533146,0.8320202145259827,0,22,383.609493882861,31,382.77615692815743,0.7096774193548387,0.026858939193810993,0.973141060806189,3.5899303503990714,1,342.4312085211277,0.3813730839174241,1,62,343.8173571091611,43,343.4339048161637,1.441860465116279,1,318.89683638652787,0.11427946109324694,0,52,320.03163692587987,68,319.9157934160903,0.7647058823529411,0,424.6647787990514,1.3828233547974378,1,24,427.0536655590404,90,425.669225217076,0.26666666666666666,0.3713653744774498,0.6286346255225502,0.5263637915610148
82,0,386.1103813885711,0.6153597568627447,1,54,387.72873689746484,80,387.11214494355954,0.675,0.0008436010530272764,0.9991563989469727,7.0769869040215525,0,346.31901340489276,0.5137459700927138,1,95,347.8527072186116,16,347.3373892987147,5.9375,0,322.53226092550904,0.03155593806877732,0,43,323.58360747317784,7,323.5507521776017,6.142857142857143,0,429.5544179538265,1.1823825452011079,1,54,431.7401972382795,80,430.5561487185769,0.675,0.17127269484134755,0.8287273051586524,1.576634163718433
83,0,390.22977452655323,0.7824759378563613,0,51,392.0318139134906,7,391.2480133343488,7.285714285714286,0.9711612749293078,0.028838725070692225,-3.516773441625493,0,350.3533928480465,0.36517318920232356,1,12,351.7219291962683,23,351.35516904480755,0.5217391304347826,1,326.0846944851801,0.01506922859698534,0,94,327.102778428467,46,327.08644302771427,2.0434782608695654,1,434.2408378305845,1.0488635855726898,1,54,436.29320008167997,31,435.2427060769405,1.7419354838709677,0.12728533529323371,0.8727146647067663,1.9251773569462114
84,0,394.5326303082984,1.232380352448672,0,60,396.78475978877395,61,395.5510784983635,0.9836065573770492,0.02930514113656202,0.970694858863438,3.5002491983430155,0,354.22285186266527,0.39818690437823534,1,53,355.6246176296845,15,355.2247967508156,3.533333333333333,0,329.6037058355287,0.06487385090440512,0,7,330.67170659895055,54,330.6055902792141,0.12962962962962962,0,438.79390151333064,1.19894510647282,1,7,441.0129485379439,54,439.8124346418772,0.12962962962962962,0.44334661978997914,0.5566533802100209,0.22759084702196308
85,1,399.28590329457074,0.7488028646912426,0,45,401.0543509910349,40,400.30426378105767,1.125,0.1032916557492275,0.8967083442507725,2.161174067432673,0,358.12532340735197,0.5313649259041995,1,80,359.66053860331886,60,359.12747175223194,1.3333333333333333,0,333.17252970975824,0.13160765171051025,0,14,334.30735355755314,57,334.17460457305424,0.24561403508771928,1,443.5138016734272,0.7655384629033506,1,12,445.29938793112524,9,444.53217282681726,1.3333333333333333,0.3294063243252451,0.6705936756747549,0.7108713860523577
86,1,403.5553364721127,0.6318444909993559,1,46,405.1903256534133,40,404.55717390356585,1.15,0.11503366679105442,0.8849663332089456,2.0403247624887433,1,362.1613044301048,0.38225999707356095,1,53,363.5634229872376,40,363.17973207705654,1.325,1,336.80849587824196,0.03170685167424381,0,88,337.8431882101577,96,337.8102467909921,0.9166666666666666,0,447.7997673875652,1.0823091033380479,1,68,449.8856047857553,63,448.8016826461535,1.0793650793650793,0.10391249714772222,0.8960875028522778,2.15448889623154
87,0,407.6941654542461,0.6653129223268479,1,37,409.3766370858066,52,408.71004258375615,0.7115384615384616,0.007181743217870684,0.9928182567821293,4.929005481309406,0,366.0639075303916,0.34826573892496526,1,86,367.4157331690658,59,367.06583108520135,1.4576271186440677,1,340.3444921108894,0.3319062392693013,0,87,341.6957741449587,89,341.36262859753333,0.9775280898876404,1,452.3862362918444,1.3823797008953989,1,17,454.77221697871573,82,453.3881310070865,0.2073170731707317,0.412218190067996,0.587781809932004,0.35480301077912146
88,1,411.87757594976574,0.5321823081467301,1,24,413.4293829416856,69,412.8959925349336,0.34782608695652173,0.0001171995290775163,0.9998828004709225,9.051515492541885,0,369.91640892182477,0.3985428549349308,1,53,371.31840224470943,57,370.9182483286131,0.9298245614035088,1,344.1967410580255,0.03142912336625159,0,74,345.2313073654659,60,345.1985962672625,1.2333333333333334,0,457.27294092904776,2.0664995291735977,0,60,460.34282376570627,40,458.2746973729227,1.5,0.1133482812222979,0.8866517187777021,2.056987041061255
89,0,415.9303542005364,0.9683377903420478,1,41,417.9166404281277,22,416.9463356263004,1.8636363636363635,0.5142421898464847,0.48575781015351527,-0.05698417427956715,1,373.8193359726574,0.3985950031783432,1,19,375.23779980721883,37,374.8375712246634,0.5135135135135135,0,347.7325373897329,0.08156046154908836,0,87,348.8172200229019,76,348.7343523025047,1.144736842105263,1,462.8433043581899,1.1494375707115978,0,82,465.0123859702144,40,463.8613744743634,2.05,0.05868893821473131,0.9413110617852687,2.775022387099068
90,1,420.41701751435176,0.5653587889391929,1,50,422.0016031600535,62,421.4349868900608,0.8064516129032258,0.007699820367085608,0.9923001796329144,4.858828662309407,0,377.73830133792944,0.4484205637127161,1,45,379.190400714986,92,378.74029758409597,0.4891304347826087,0,351.3184824420605,0.015163648407906294,0,78,352.3364099410828,65,352.32011997234076,1.2,0,467.51319485879503,1.3158220974728465,1,37,469.84899284970015,52,468.53152413549833,0.7115384615384616,0.22776821949766757,0.7722317805023324,1.220956208040152
91,1,424.50284898653626,0.6153281519655138,1,88,426.12121042143553,96,425.50465915887617,0.9166666666666666,0.004634908361153767,0.9953650916388462,5.369493168361801,1,381.69120367756113,0.3651380285155028,1,54,383.0763002168387,31,382.7096060407348,1.7419354838709677,1,354.83738673082553,0.0983964055776596,0,19,355.9388081228826,37,355.83915226114914,0.5135135135135135,1,472.34983808384277,0.8823704170063138,1,46,474.2520840484649,40,473.36806503962725,1.15,0.16797386409757198,0.832026135902428,1.6000554572190107
92,1,428.6220256309025,0.6665060082450509,1,40,430.30763918720186,93,429.64033278427087,0.43010752688172044,2.209801747787843e-05,0.9999779019825221,10.720000562086156,0,385.57709922874346,0.34838939318433404,1,37,386.94558658939786,52,386.5955098881386,0.7115384615384616,1,358.4396490114741,0.0649445669259876,0,41,359.5077086389065,7,359.4414927638136,5.857142857142857,0,476.75262231985107,1.6491888794116676,1,12,479.40532053122297,3,477.7545498253312,4.0,0.32004823469847654,0.6799517653015235,0.7535501444067796
93,1,432.80816955748014,0.798781709279865,0,41,434.61019472195767,7,433.8101800256409,5.857142857142857,0.9095604996085813,0.09043950039141874,-2.308280392186199,0,389.4461537003517,0.4651281125843525,1,28,390.91485395957716,41,390.4480575020425,0.6829268292682927,1,362.00877471268177,0.06485133245587349,0,69,363.0766806611791,61,363.0105635514483,1.1311475409836065,1,481.90607450623065,0.9822724021505564,1,41,483.8916563389357,7,482.90784517209977,5.857142857142857,0.15821113678473797,0.841788863215262,1.671598776796101
94,0,437.11157091893256,0.7816075924783945,1,28,438.9132527750917,41,438.1303118497599,0.6829268292682927,0.012546363706325003,0.987453636293675,4.365698666006575,1,393.41557277413085,0.5318883825093508,1,37,394.95079547632486,54,394.4173406746704,0.6851851851851852,0,365.57852184562944,0.11441496713086963,0,38,366.7124935456086,43,366.59679541853257,0.8837209302325582,0,486.3924130795058,1.199133946094662,1,35,488.5948248512577,62,487.3941766342614,0.5645161290322581,0.25264612564974,0.74735387435026,1.0845490035672236
95,0,441.41383410827257,0.8655637074261904,1,56,443.2825156415347,59,442.41574739152566,0.9491525423728814,0.024519209674414344,0.9754807903255857,3.683473589064516,0,397.45152890798636,0.4487385880202055,1,24,398.9037440379616,90,398.45334658632055,0.26666666666666666,0,369.21374529832974,0.04774042568169534,0,95,370.26479278435,16,370.2160346801393,5.9375,1,491.0953824806493,0.9656478161923587,1,24,493.0647604682017,69,492.0973791219294,0.34782608695652173,0.3372128765443244,0.6627871234556756,0.6757394458014915
96,1,445.7836678386666,0.8655344729777426,0,54,447.6688048716169,31,446.80203662160784,1.7419354838709677,0.5688712605072805,0.43112873949271946,-0.27724740780667045,0,401.40709317242727,0.41529702115803957,1,60,402.83978040888906,40,402.4226633391809,1.5,0,372.76581540121697,0.23139230371452868,0,56,374.00110538234003,59,373.7682695237454,0.9491525423728814,1,495.56517192488536,1.0658314803149551,1,88,497.65098719950765,96,496.583572312491,0.9166666666666666,0.0709283841638152,0.9290716158361848,2.5725151307711402
97,0,450.1697887724731,0.7654270557686687,1,68,451.9548511784524,63,451.1882496047765,1.0793650793650793,0.055533824543076205,0.9444661754569238,2.8336275878457995,0,405.3420190254692,0.46381492796353996,1,60,406.8258260441944,70,406.3603230181616,0.8571428571428571,1,376.5017285919748,0.08148302952758968,0,15,377.58645349671133,42,377.5036604430061,0.35714285714285715,1,500.15150650800206,0.7656139195896685,1,66,501.9204452659469,59,501.1533790999092,1.11864406779661,0.10739165127320738,0.8926083487267926,2.1176654612522627
98,0,454.4560701409355,0.9821716614533216,0,78,456.4412952330895,34,455.4579032266047,2.2941176470588234,0.9386225821762241,0.061377417823775884,-2.72737148287965,0,409.32619483419694,0.36499541136436164,1,59,410.69481058977544,65,410.32816777168773,0.9076923076923077,1,380.08748045936227,0.048285610508173704,0,58,381.1387819699012,58,381.08921873010695,1.0,0,504.42098630266264,0.8823640958871692,1,45,506.30669340956956,92,505.42274077120237,0.4891304347826087,0.23191403174574554,0.7680859682542545,1.1975349145395746
99,1,458.942460862454,0.48183092079125345,1,42,460.4273938066326,67,459.9443113307934,0.6268656716417911,0.0013913962499564336,0.9986086037500436,6.5760551744963225,1,413.19545829319395,0.4153045271523297,1,10,414.6141366462689,44,414.1972886135336,0.22727272727272727,1,383.6398693767842,0.0484033387620002,0,24,384.70801591780037,69,384.65837366576307,0.34782608695652173,0,508.8072111378424,1.5493323260452598,1,14,511.3600180305075,7,509.8090288161766,2.0,0.3120884603080004,0.6879115396919996,0.7903735793860569
