,self_acceptUp,self_cue_times,self_decision_times,self_decisions,self_punishment_values,self_response_times,self_reward_values,self_trial_times,self_punishment_reward_ratio,self_prob_reject,self_prob_accept,self_SV,harm_other_acceptUp,harm_other_cue_times,harm_other_decision_times,harm_other_decisions,harm_other_punishment_values,harm_other_response_times,harm_other_reward_values,harm_other_trial_times,harm_other_punishment_reward_ratio,harm_self_acceptUp,harm_self_cue_times,harm_self_decision_times,harm_self_decisions,harm_self_punishment_values,harm_self_response_times,harm_self_reward_values,harm_self_trial_times,harm_self_punishment_reward_ratio,other_acceptUp,other_cue_times,other_decision_times,other_decisions,other_punishment_values,other_response_times,other_reward_values,other_trial_times,other_punishment_reward_ratio
0,1,0.006401965219993144,0.9200400276458822,1,98,1.950662003888283,73,1.0287426706054248,1.3424657534246576,0.00019402717275007753,0.9998059728272499,8.547318296988728,1,0.0093108001165092,2.371159907313995,0,25,3.399387418234255,37,1.026577735785395,0.6756756756756757,0,0.00942378758918494,0.43108435586327687,0,45,1.4667425710940734,42,1.0338571316679008,1.0714285714285714,1,0.005732336605433375,1.5568631200003438,0,15,2.583124411816243,42,1.0249113680329174,0.35714285714285715
1,0,4.4487870439188555,0.6809628745540977,1,55,6.149167171679437,60,5.466457336966414,0.9166666666666666,2.090560835554811e-09,0.9999999979094392,19.98583346250578,0,5.899105739663355,0.5306879515410401,0,28,7.448103193135466,18,6.91652832942782,1.5555555555555556,0,3.9659121526638046,0.03091945732012391,0,43,5.016047382086981,7,4.9830412120209076,6.142857142857143,1,5.081780413980596,0.5814252540585585,0,43,6.681809885485563,97,6.0991362383938394,0.44329896907216493
2,1,8.648217444773763,0.5639272076077759,1,66,10.230588080070447,59,9.666069070925005,1.11864406779661,6.881798917390824e-07,0.9999993118201083,14.189214874459415,0,9.946249961445574,0.09725851297844201,0,53,11.064042170415632,57,10.964902376465034,0.9298245614035088,1,7.514642939844634,0.26274368359008804,0,12,8.797665109857917,9,8.533179206831846,1.3333333333333333,1,9.1802881101612,0.8479401908698492,0,55,11.046971185016446,95,10.197746650432236,0.5789473684210527
3,1,12.72996743908152,0.5465709881391376,1,43,14.297182345180772,97,13.748370570479892,0.44329896907216493,0.0,1.0,inf,0,13.562856592005119,0.4475469471071847,0,60,15.029356200539041,70,14.579912170011085,0.8571428571428571,1,11.296647037379444,0.014425656176172197,0,46,12.330250539875124,40,12.313832590472884,1.15,1,13.596503156120889,0.5490302434773184,0,15,15.163322211010382,56,14.613332759181503,0.26785714285714285
4,1,16.795209805073682,0.5295904717640951,1,15,18.345120639831293,42,17.813704195606988,0.35714285714285715,2.5208723997138804e-12,0.9999999999974791,26.706416083950103,1,17.527079463354312,0.6645457152626477,0,43,19.210716111469083,93,18.544600028253626,0.46236559139784944,1,14.829121060145553,0.2808955560903996,0,56,16.128888685198035,46,15.846003206330352,1.2173913043478262,0,17.661749472783413,0.46461832750355825,0,87,19.144225747382734,85,18.67859013751149,1.0235294117647058
5,0,20.84483422053745,0.5630517522222362,1,15,22.427881595445797,42,21.862565352988895,0.35714285714285715,2.5208723997138804e-12,0.9999999999974791,26.706416083950103,1,21.709246089099906,0.7976761715835892,0,97,23.525692008784972,61,22.726579790061805,1.5901639344262295,0,18.626927996985614,0.3140984666533768,0,62,19.960815469326917,16,19.644719968840946,3.875,1,21.646359472419135,0.6307111021014862,0,37,23.292943339503836,54,22.660964091308415,0.6851851851851852
6,1,24.925127624475863,0.5150557786691934,1,28,26.45901241042884,82,25.942339251632802,0.34146341463414637,0.0,1.0,inf,0,26.02540282404516,0.6310425583506003,0,43,27.675206044106744,7,27.042327241739258,6.142857142857143,0,22.461272555054165,0.11467596696456894,0,60,23.592772989184596,70,23.476376531179994,0.8571428571428571,1,25.792230649269186,0.3145199968130328,0,74,27.125342221639585,60,26.809420548030175,1.2333333333333334
7,1,28.957154043018818,0.4981499288114719,1,42,30.474065028654877,67,29.974457719363272,0.6268656716417911,4.6629367034256575e-14,0.9999999999999534,30.69654585839964,1,30.172818689839914,0.6480179389473051,0,66,31.83983353705844,59,31.19036374852294,1.11864406779661,0,26.092324199795257,0.34673762490274385,0,12,27.458685299847275,23,27.10980683885282,0.5217391304347826,0,29.623696792172268,0.5787487150519155,0,6,31.223697819339577,26,30.643603131058626,0.23076923076923078
8,1,32.9723646856728,0.41472013475140557,1,19,34.40592291409848,37,33.98969917674549,0.5135135135135135,4.499811634417483e-10,0.9999999995500188,21.52181539260865,0,34.338207860593684,0.8813805331010371,0,62,36.23850036383374,17,35.355608326906804,3.6470588235294117,1,29.956369056599215,0.36464179411996156,0,10,31.340102968737483,44,30.973745029128622,0.22727272727272727,1,33.72226927836891,0.4810817088582553,0,15,35.2225094755413,19,34.7400482132216,0.7894736842105263
9,1,36.90734513406642,1.3479255736456253,1,97,39.27135246008402,61,37.92170639534015,1.5901639344262295,0.25909650934236705,0.740903490657633,1.0506697595500196,1,38.737614636833314,0.7482279534451663,0,62,40.5060424595722,43,39.75606438546674,1.441860465116279,0,33.83867561299121,0.2978290602331981,0,68,35.155776543950196,63,34.856177214940544,1.0793650793650793,1,37.721050119784195,0.5289646949386224,0,62,39.271137151750736,43,38.74079448363045,1.441860465116279
10,0,41.769432858156506,1.564295799646061,0,51,44.352830652322154,7,42.7870320402435,7.285714285714286,0.9999983566901544,1.6433098456840024e-06,-13.31879650805595,1,43.00193974998547,1.2478178800083697,0,24,45.26906979701016,69,44.01951285806717,0.34782608695652173,1,37.65392331231851,0.31482103338930756,0,4,38.98756071104435,22,38.67108437162824,0.18181818181818182,0,41.77058525139,0.4328637110302225,0,28,43.22177584702149,18,42.78754561964888,1.5555555555555556
11,0,46.85116665496025,0.7146647471818142,1,22,48.584944063273724,31,47.86843833135208,0.7096774193548387,9.780793752689476e-08,0.9999999021920625,16.140260004584363,1,47.76710160257062,0.6313384590903297,0,98,49.41753889573738,73,48.78462888352806,1.3424657534246576,1,41.48568417079514,0.38147337251575664,0,74,42.88607109361328,60,42.50309214327717,1.2333333333333334,1,45.718208445294295,0.5980869561317377,0,19,47.33489961887244,37,46.73560298566008,0.5135135135135135
12,1,51.083027621905785,0.514776470430661,1,10,52.61684998817509,44,52.100558458361775,0.22727272727272727,6.483702463810914e-14,0.9999999999999352,30.36689958684881,1,51.915754009678494,0.6815712686511688,0,82,53.616209594125394,40,52.93307309341617,2.05,0,45.384490454162005,0.08167888323077932,0,41,46.48499873979017,22,46.401694575091824,1.8636363636363635,1,49.833617645606864,0.7811740741599351,0,40,51.633408579276875,93,50.851065914321225,0.43010752688172044
13,0,55.11503507749876,0.8980370993958786,1,78,57.03205288760364,65,56.13242171664024,1.2,3.470497857316346e-06,0.9999965295021427,12.571209029062206,1,56.11522549693473,0.7309562769951299,0,15,57.865148657525424,56,57.132252235431224,0.26785714285714285,1,48.9832035821164,0.3314985379111022,0,98,50.33384678111179,73,50.00061076448765,1.3424657534246576,1,54.13290882698493,0.7959770137676969,0,46,55.94882022897946,40,55.15158099500695,1.15
14,1,59.530257334932685,0.8480089315562509,1,69,61.39715058228467,61,60.54764634446474,1.1311475409836065,7.400724620909571e-07,0.9999992599275379,14.116516993724945,0,60.36322550009936,0.5479066896950826,0,41,61.930374035960995,22,61.38074843533104,1.8636363636363635,0,52.83189201873029,0.5981391041423194,0,24,54.44902566081146,90,53.8493363368907,0.26666666666666666,0,58.44757499638945,0.5295146200223826,0,87,59.98073247488355,76,59.450091535632964,1.144736842105263
15,1,63.898376061813906,1.0813371554249898,1,3,65.99568237719359,18,64.91287954506697,0.16666666666666666,7.699867643484737e-08,0.9999999230013236,16.379477527399608,1,64.42820791591657,0.4813412640360184,0,28,65.92874796444084,82,65.4457612708793,0.34146341463414637,0,56.947111589775886,0.3650194725487381,0,96,58.33104856329737,89,57.96450692031067,1.0786516853932584,1,62.47955677303253,0.598248141061049,0,54,64.09617090970278,31,63.49677551124478,1.7419354838709677
16,0,68.49398914532503,0.5813501924276352,1,58,70.09427935717395,58,69.51140699430835,1.0,3.196235753843979e-08,0.9999999680376425,17.258706921523657,0,68.42884119885275,1.0978218701202422,0,28,70.54382689367048,41,69.44441608781926,0.6829268292682927,1,60.829236418008804,0.49652346229413524,0,32,62.34642078593606,16,61.848326165636536,2.0,1,66.59500152885448,0.7151242032996379,0,12,68.32818911096547,9,67.611873008369,1.3333333333333333
17,0,72.592637088208,0.831247674068436,1,71,74.44288009026786,69,73.61015725805191,1.0289855072463767,9.310719195632089e-09,0.9999999906892808,18.492099489530965,0,73.04202027927386,0.5816796733997762,0,45,74.64256925618974,92,74.05937412841013,0.4891304347826087,0,64.84664676088141,0.38162705121794716,0,35,66.24513422994642,62,65.86198974895524,0.5645161290322581,0,70.8266843232559,0.4482268472202122,0,62,72.29337000550004,17,71.844001036603,3.6470588235294117
18,0,76.94117421639385,0.8147463668137789,1,68,78.77481477562105,63,77.95852490502875,1.0793650793650793,1.2308768604363252e-07,0.999999876912314,15.910368717811318,1,77.14069903688505,0.5315266661928035,0,16,78.69116888305871,10,78.1581058242009,1.6,1,68.74328771431465,0.581495574908331,0,6,70.3438394566765,8,69.76070082263323,0.75,1,74.79187509429175,0.3983855433179997,0,53,76.20882969466038,55,75.80932849884266,0.9636363636363636
19,0,81.27293981559342,0.9645768461050466,0,62,83.25664631050313,17,82.29054136801278,3.6470588235294117,0.9999926126663506,7.387333649304096e-06,-11.81573630598535,0,81.19048621749971,0.7139133409946226,0,40,82.92295162793016,15,82.20748688199092,2.6666666666666665,0,72.84208657051204,0.4791427489835769,0,78,74.32536560931476,65,73.84470701083774,1.2,1,78.7075907830149,0.6813042073044926,0,10,80.40732498595025,44,79.724873126077,0.22727272727272727
20,1,92.78799756959779,1.7969824442407116,0,54,95.60283203504514,31,93.80413818603847,1.7419354838709677,0.2300793575408976,0.7699206424591024,1.2078631655954948,1,92.45374585088575,1.0494012058479711,0,56,94.5210042137187,46,93.47004765225574,1.2173913043478262,1,83.85649484407622,0.34787145029986277,0,54,85.22204409359256,31,84.87263348523993,1.7419354838709677,0,89.9384044429753,0.5310008399537764,0,60,91.48704160068883,70,90.95481251581805,0.8571428571428571
21,1,98.10333652806003,1.2645218535908498,1,42,100.38436363951769,39,99.11823309713509,1.0769230769230769,5.469218937292908e-06,0.9999945307810627,12.116369272749228,1,97.01743286132114,0.6148466333397664,0,46,98.65108558838256,36,98.0347709080088,1.2777777777777777,1,87.72056577494368,0.21484963584225625,0,43,88.95412708487129,97,88.73778569832211,0.44329896907216493,1,93.98570234357612,0.414782949432265,0,82,95.41924713994376,40,95.00322409364162,2.05
22,0,102.88254043250345,0.9311894421116449,1,96,104.83278801734559,89,103.90003847895423,1.0786516853932584,1.8681678426446524e-09,0.9999999981318322,20.098307647785166,0,101.14935443061404,0.6815815402660519,0,77,102.84991470631212,72,102.1667600327637,1.0694444444444444,0,91.45408994908212,0.5644044413929805,0,59,93.03659292985685,65,92.47041426895885,0.9076923076923077,1,97.91772378433961,0.7814936785725877,0,97,99.71775649534538,61,98.93502074462594,1.5901639344262295
23,0,107.33107661263784,0.6148079173290171,1,45,108.96520143770613,92,108.34855530102504,0.4891304347826087,0.0,1.0,inf,1,105.34802512906026,0.514773309987504,0,19,106.88191623595776,37,106.36553226184333,0.5135135135135135,0,95.53447935293661,0.8145812312723137,0,86,97.36806223320309,59,96.55196080676978,1.4576271186440677,0,102.21617585589411,0.4814392392290756,0,41,103.71645239868667,22,103.23373987752711,1.8636363636363635
24,0,111.46305151516572,0.8146278485073708,0,53,113.29673908662517,15,112.48058590723667,3.533333333333333,0.9998693965114916,0.00013060348850835277,-8.94321401806453,1,109.38019930041628,0.58142367383698,0,50,110.98041761119384,62,110.39740934729343,0.8064516129032258,0,99.8663543840521,0.2483429161948152,0,78,101.13365272706142,34,100.8836971714627,2.2941176470588234,1,106.2179172852193,0.6981843782123178,0,54,107.93163546605501,78,107.23220546019729,0.6923076923076923
25,1,115.79501464491477,1.2308041784563102,0,82,118.04523528652498,40,116.8128508636728,2.05,0.9972283020298388,0.0027716979701612036,-5.885519614726621,1,113.47965632844716,0.6309343116008677,0,55,115.12976453569718,95,114.49682291859062,0.5789473684210527,1,103.63191840884974,0.3981070252484642,0,25,105.04894095973577,37,104.64929793693591,0.6756756756756757,0,110.43010341905756,0.7646593348472379,0,53,112.2134451935417,15,111.44757973711239,3.533333333333333
26,1,120.54344131407561,1.1810979854199104,1,15,122.74350815842627,19,121.56091328646289,0.7894736842105263,1.0719494114130868e-05,0.9999892805058859,11.443435874729573,0,117.6277730326401,1.0304110136348754,0,78,119.67782292887568,65,118.64560490567237,1.2,1,107.54815241775941,1.3456658241339028,0,14,109.91412991349353,8,108.5668016722193,1.75,0,114.71205931919394,0.6311974222771823,0,95,116.36219320539385,16,115.72971539007267,5.9375
27,1,125.24274687567959,0.8962676207302138,0,41,127.15904923016205,7,126.26117015519412,5.857142857142857,0.9998253273982943,0.0001746726017057162,-8.652422495798682,0,122.1759693021886,0.3971881130710244,0,87,123.5931644947268,85,123.19433213735465,1.0235294117647058,0,112.41241337300744,0.4794350942247547,0,45,113.91298581653973,60,113.43182944104774,0.75,0,118.86067933123559,0.9980318055604585,0,7,120.87727742845891,54,119.87803120503668,0.12962962962962962
28,1,129.6571924429736,0.8814239898347296,1,14,131.55746282276232,8,130.674434094748,1.75,0.009849907276608394,0.9901500927233916,4.610394498851293,1,126.09119906573324,0.28139175282558426,0,3,127.3917188871419,18,127.10860269254772,0.16666666666666666,1,116.41094572097063,0.7811827655532397,0,53,118.21139956719708,40,117.42851685371716,1.325,1,123.3759729366866,0.9813724738778546,0,14,125.37585639365716,8,124.39324184769066,1.75
29,1,134.0556119615212,1.0478379491250962,1,58,136.12247763364576,58,135.07303494634107,1.0,3.196235753843979e-08,0.9999999680376425,17.258706921523657,1,129.89077350590378,0.4132003347040154,0,52,131.32463040057337,68,130.9091995508643,0.7647058823529411,1,120.70956766884774,0.8978273219545372,0,14,122.62627575109946,57,121.72699776478112,0.24561403508771928,1,127.87428879120853,0.5813987849396653,0,66,129.47452171926852,59,128.89182041783351,1.11864406779661
30,1,138.62085393245798,0.5825017955503426,1,17,140.22170987183927,82,139.63817933719838,0.2073170731707317,0.0,1.0,inf,0,133.82227702159435,0.3810984594747424,0,35,135.22270147519885,62,134.839889240684,0.5645161290322581,0,125.12554054235807,0.6812603555736132,0,38,126.82536007848103,43,126.14238673797809,0.8837209302325582,0,131.9731239930843,0.7647980013280176,0,45,133.75655149581144,92,132.9904233237612,0.4891304347826087
31,0,142.7195319000166,1.1797065802384168,1,6,144.91975953418296,26,143.73842253681505,0.23076923076923078,1.5447207957208775e-09,0.9999999984552792,20.288422656126627,0,137.7229946105508,0.6810375410714187,0,78,139.42122007510625,34,138.7385209070053,2.2941176470588234,1,129.32362378487596,0.9812646222417243,0,69,131.32362576021114,61,130.34072281961562,1.1311475409836065,1,136.25594389182515,1.2974130608490668,0,94,138.57157401030418,46,137.27282603795175,2.0434782608695654
32,1,147.41867904207902,1.0145520757650957,1,45,149.45139168173773,40,148.43529412691714,1.125,1.1420784606808176e-05,0.9999885792153932,11.380064230622457,0,141.92051410092972,0.41394304955611005,0,12,143.35336793540046,23,142.93761590105714,0.5217391304347826,0,133.8217425039038,0.4481916867662221,0,22,135.2889275434427,31,134.83916114305612,0.7096774193548387,1,141.06993648206117,1.1814606515108608,0,28,143.26937201875262,82,142.08739146683365,0.34146341463414637
33,1,151.94976995594334,0.5981718942639418,1,14,153.56681984500028,57,152.96712578035658,0.24561403508771928,0.0,1.0,inf,0,145.85176951816538,0.43181087321136147,0,7,147.30281907704193,54,146.86953225551406,0.12962962962962962,1,137.78863440809073,0.14802425989182666,0,15,138.95408086269163,56,138.80552050488768,0.26785714285714285,0,145.76864984707208,1.2478151145623997,0,50,148.03511026548222,7,146.78603095537983,7.142857142857143
34,0,156.0649583170889,0.5979526353185065,1,28,157.68187270022463,41,157.08243107964518,0.6829268292682927,2.1101491665120875e-09,0.9999999978898508,19.976507194817636,1,149.80017295776634,0.7477645467151888,0,94,151.56696799292695,46,150.8176631029346,2.0434782608695654,0,141.45350407349179,0.47964921733364463,0,37,142.95332550589228,52,142.4719028592226,0.7115384615384616,0,150.5345326861716,0.9956104760640301,0,59,152.5501668342622,65,151.5532471257029,0.9076923076923077
35,1,160.18017393752234,0.5314595058443956,1,46,161.730642993527,40,161.1976636876352,1.15,1.821172316507358e-05,0.9999817882768349,10.913426829406081,0,154.06524355121655,0.650601243483834,0,68,155.73532446764875,63,155.08254485722864,1.0793650793650793,0,145.45152797782794,0.7975967642851174,0,58,147.26862140267622,58,146.46923106099712,1.0,0,155.04902550275438,1.1145120165892877,0,35,157.18226262554526,62,156.06642004317837,0.5645161290322581
36,0,164.2290896133054,0.7478155096177943,1,56,165.99610627774382,59,165.24671131384093,0.9491525423728814,6.473241276339081e-09,0.9999999935267587,18.855588877336107,1,158.23081879573874,0.5478023935575038,0,17,159.79783340590075,82,159.24831684213132,0.2073170731707317,0,149.76648491225205,0.8312401679577306,0,56,151.6165588281583,59,150.78401416848646,0.9491525423728814,0,159.68061601085356,0.5625109135871753,0,96,161.264234644128,89,160.70041370793479,1.0786516853932584
37,0,168.49432257685112,0.7479948673862964,1,9,170.262067734031,7,169.51192017871654,1.2857142857142858,0.001869945413154217,0.9981300545868458,6.279974343424641,0,162.29596516193124,0.648035321617499,0,45,163.9628484537825,42,163.31332414684584,1.0714285714285714,1,154.1161495448323,0.546196470153518,0,15,155.68240247719223,19,155.13452186150244,0.7894736842105263,0,163.7626303010038,1.0145287671475671,0,68,165.79578185355058,63,164.77999521180755,1.0793650793650793
38,0,172.7595760836266,0.5145220511476509,1,45,174.29334353643935,42,173.7771144263097,1.0714285714285714,3.028989226439016e-06,0.9999969710107736,12.707278553736236,0,166.46111769106938,1.0145979028311558,0,14,168.49490292160772,7,167.47863549052272,2.0,1,158.18057215912268,0.4810026966733858,0,41,159.68104386207415,7,159.19827524223365,5.857142857142857,1,168.29445326304995,0.39705655770376325,0,45,169.71132411045255,40,169.31297333253315,1.125
39,1,176.79157721827505,0.7316065475461073,1,12,178.5425216118456,9,177.8089144747937,1.3333333333333333,0.0020106662318633006,0.9979893337681367,6.20727646285811,1,170.99592573480913,0.39796124771237373,0,37,172.4100434014108,54,172.0104718846851,0.6851851851851852,0,162.1803047027206,0.5808990327059291,0,14,163.77987748367013,7,163.19719949085265,2.0,1,172.2097158167162,0.6647807766566984,0,72,173.89320194651373,51,173.2272031964967,1.411764705882353
40,1,188.07209825643804,0.6475596680538729,1,74,189.73816021624953,60,189.08898751367815,1.2333333333333334,1.4816966579900281e-05,0.9999851830334201,11.119722826187909,1,181.94061915553175,1.2142858835868537,0,45,184.17287360335467,40,182.95697073463816,1.125,1,173.31001195457065,0.4480032426654361,0,42,174.77599126758287,39,174.326489163097,1.0769230769230769,0,183.42390846589115,0.381137965596281,0,62,184.8228000824456,17,184.44043940276606,3.6470588235294117
41,1,192.236412860977,0.4981534844264388,1,24,193.75356009311508,69,193.253807401401,0.34782608695652173,0.0,1.0,inf,1,186.67119261837797,0.6316426561679691,0,12,188.32147346728016,9,187.68832562828902,1.3333333333333333,0,177.27413961617276,0.33143453794764355,0,87,178.62465244502528,76,178.29160289722495,1.144736842105263,1,187.3214789981139,0.48118798033101484,0,50,188.82138615875738,62,188.33896282233763,0.8064516129032258
42,1,196.25176454044413,0.5647797494893894,1,50,197.83574504969874,62,197.26902950077783,0.8064516129032258,5.377387424232438e-11,0.9999999999462261,23.646233375531942,0,190.82157025724882,0.5797952319262549,0,87,192.4201150892186,76,191.8388130941894,1.144736842105263,0,181.1229098304757,0.46500943799037486,0,51,182.6063417578698,7,182.14027395116864,7.285714285714286,0,191.3200796917081,0.31475545320427045,0,51,192.65362938685576,7,192.33756272582104,7.285714285714286
43,0,200.3337353738607,1.014557606598828,1,54,202.36730648129014,80,201.35104023537133,0.675,2.220446049250313e-15,0.9999999999999978,33.74106829612311,1,194.91835114138667,0.9646756113506854,0,53,196.90201615483966,55,195.93578044715105,0.9636363636363636,1,185.10488082194934,0.7478680527419783,0,87,186.87174380762735,89,186.1223622757825,0.9775280898876404,1,195.1521739817108,0.5980830055195838,0,53,196.76899315515766,40,196.16965148499003,1.325
44,0,204.86554845940555,0.764650643512141,0,50,206.64927620853996,7,205.88293628377141,7.142857142857143,0.9999973795427363,2.620457263696964e-06,-12.852159106830221,0,199.40024904650636,0.4481774645973928,0,71,200.86725670361193,64,200.41760210553184,1.109375,1,189.3700580818695,0.6812753678532317,0,37,191.07057766627986,54,190.38759839982959,0.6851851851851852,1,199.26742910820758,0.39821961760753766,0,14,200.684248202655,57,200.28473475988721,0.24561403508771928
45,1,209.14821744477376,0.6477457418804988,1,52,210.81491229246603,68,210.1653939114767,0.7647058823529411,2.5508484213787597e-12,0.9999999999974492,26.6945950978266,1,203.36550697794883,1.2311368199880235,0,32,205.6156975949416,16,204.38299080217257,2.0,0,193.5687220642576,0.6146178929484449,0,7,195.20237795182038,54,194.58620509837056,0.12962962962962962,0,203.1827892420115,0.3147360951988958,0,60,204.51636224571848,40,204.20036788086873,1.5
46,0,213.31291999935638,0.6308213241281919,1,45,214.96360934147378,60,214.33088224253152,0.75,1.9664492256765698e-11,0.9999999999803355,24.65220652999914,0,208.1138281658059,0.6980338598950766,0,45,209.83099285967182,60,209.13141233555507,0.75,1,197.70077795436373,0.5481954794377089,0,62,199.26779651507968,43,198.71804923570016,1.441860465116279,0,207.01749409578042,0.5978981168591417,0,45,208.6316568783368,42,208.03247283754172,1.0714285714285714
47,0,217.4614732460468,0.9143369255471043,0,43,219.39516579528572,7,218.47914551442955,6.142857142857143,0.9999313003188741,6.869968112589629e-05,-9.585697298250135,1,212.329253800679,0.6958926286897622,0,75,214.0295904717641,70,213.33217567257816,1.0714285714285714,1,201.7668977510766,0.3977613467723131,0,82,203.18335022876272,40,202.7839011810138,2.05,0,211.13015604118118,0.3647855963790789,0,14,212.5137398301158,7,212.14768016163725,2.0
48,1,221.8931865391787,0.4481051684124395,1,88,223.3602356776828,96,222.91072172130225,0.9166666666666666,4.292122213200855e-13,0.9999999999995708,28.476824909908395,0,216.5288216828485,0.5627925921580754,0,15,218.11191369965672,42,217.5472062463523,0.35714285714285715,1,205.68138440471375,0.41486393701052293,0,45,207.11511290451745,40,206.6987659081351,1.125,0,215.01312155945925,0.27941249671857804,0,40,216.31248582713306,15,216.0317842460354,2.6666666666666665
49,0,225.85856930993032,1.114576016436331,1,80,227.99213788897032,60,226.87603101070272,1.3333333333333333,0.0002435612736888526,0.9997564387263111,8.319898418831555,1,220.6100549371913,0.548288318736013,0,4,222.17782411404187,22,221.6274230084964,0.18181818181818182,0,209.61329720367212,0.381581224151887,0,28,211.01340363314375,41,210.63063959602732,0.6829268292682927,0,218.81106795283267,0.5314745181822218,0,7,220.3611478737439,54,219.82844036986353,0.12962962962962962
50,1,230.4903466819087,0.7813889873796143,1,4,232.2907957874122,22,231.50784986413782,0.18181818181818182,8.636496962033391e-09,0.999999991363503,18.567268771917774,1,224.67541187093593,0.5650503663346171,0,40,226.25889104767703,93,225.69235722685698,0.43010752688172044,0,213.5122227955144,0.7647466433700174,0,80,215.29582096461672,60,214.52955057058716,1.3333333333333333,1,222.8597394808894,0.381501026742626,0,87,224.25968195998576,89,223.87700720666908,0.9775280898876404
51,1,234.7889259631629,0.7450406004791148,1,56,236.5559785782243,46,235.80940869625192,1.2173913043478262,3.6117541205471504e-05,0.9999638824587945,10.228695786477317,1,228.75716621091124,0.7481370893656276,0,88,230.52419275190914,96,229.77454257849604,0.9166666666666666,1,217.79564595257398,0.4300461352104321,0,72,219.2452476124745,51,218.81312543113017,1.411764705882353,0,226.75833164114738,0.89798969210824,0,62,228.67503142706119,16,227.775808749313,3.875
52,0,239.05414035887225,0.5815556242014281,1,59,240.6548118047649,65,240.0715882325312,0.9076923076923077,4.896552052713332e-10,0.9999999995103448,21.43731963473259,0,233.02241576701635,0.8123862718348391,0,62,234.8392132911249,16,234.02540282404516,3.875,0,221.74352870159782,0.31328464072430506,0,87,223.07674298982602,85,222.76174101850484,1.0235294117647058,1,231.17356377508258,0.8811976198339835,0,16,233.07352126651676,10,232.19103930302663,1.6
53,0,243.15290484478464,1.2644649647991173,1,71,245.43625215010252,64,244.17033257032745,1.109375,2.5703233752505383e-07,0.9999997429676625,15.174063675988632,1,237.3376859849086,0.664746011258103,0,33,239.0214292994351,25,238.35508566111093,1.32,1,225.57561192993307,0.6979299588711001,0,3,227.29227924183942,18,226.59256637224462,0.16666666666666666,0,235.5729812179925,0.7628392883343622,0,24,237.35563163552433,90,236.59142029995564,0.26666666666666666
54,0,247.93472247355385,1.8478200923418626,1,41,250.80135656084167,22,248.95195306360256,1.8636363636363635,0.21388158298501614,0.7861184170149839,1.301684927531707,0,241.5205688563874,0.4143029502592981,0,38,242.95395641843788,43,242.5377753477078,0.8837209302325582,0,229.79016289953142,0.2646893595228903,0,28,231.0740980557748,18,230.80772652605083,1.5555555555555556,1,239.85510896967025,1.0123946471139789,0,17,241.88735543726943,82,240.87363219965482,0.2073170731707317
55,0,253.29949858842883,0.764730840921402,1,12,255.0832903375267,23,254.31692433869466,0.5217391304347826,1.8595206519034235e-07,0.9999998140479348,15.497776724525512,1,245.4518724710797,1.4471945525729097,0,58,247.91881178261247,6,246.46979362796992,9.666666666666666,0,233.57212354033254,0.581337945535779,0,14,235.17222728341585,57,234.5896243522293,0.24561403508771928,0,244.3859324271325,0.7312983999727294,0,78,246.1358465013327,65,245.40331274532946,1.2
56,1,257.5823094007792,0.5477383937104605,1,54,259.14894435723545,78,258.5994194971863,0.6923076923076923,8.43769498715119e-15,0.9999999999999916,32.406067229390764,1,250.41770284611266,0.4981586202047765,0,15,251.9338802032289,19,251.4341547706863,0.7894736842105263,1,237.6707971622236,0.6647547026514076,0,53,239.35417346499162,55,238.68815259158146,0.9636363636363636,1,248.6344467998715,0.8646433743997477,0,43,250.5176754288259,93,249.6518172415672,0.46236559139784944
57,1,261.6470729527646,1.2813708146568388,1,43,263.94732887338614,93,262.664616431226,0.46236559139784944,0.0,1.0,inf,1,254.433327117702,1.1973488239455037,0,14,256.6488874683855,8,255.4499860543292,1.75,1,241.85268685006304,0.4980416821199469,0,40,243.36947615689132,93,242.87018371134764,0.43010752688172044,0,253.0163093075389,1.0814402663963847,0,86,255.11626174219418,59,254.03367974923458,1.4576271186440677
58,1,266.4451742101228,0.49779042322188616,1,26,267.9627358613652,84,267.4631293422426,0.30952380952380953,0.0,1.0,inf,0,259.147277989483,0.6147071767481975,0,62,260.7808212846285,17,260.1645927275531,3.6470588235294117,0,245.8689574416494,0.1478539885720238,0,60,247.03546542546246,40,246.88614141452126,1.5,0,257.615100262512,0.6813745281542651,0,43,259.3148727863445,7,258.63228542055003,6.142857142857143
59,1,270.46164944331395,0.5814058960531838,1,25,272.0609650394763,37,271.477739887021,0.6756756756756757,7.3984836035378976e-09,0.9999999926015164,18.72199076877728,1,263.2802800508798,0.9460950975189917,0,6,265.2472335845814,8,264.2989123177831,0.75,1,249.53350355202565,0.4814186960575171,0,42,251.03372360102367,67,250.55103675887221,0.6268656716417911,1,261.8149826133158,0.5800646636052988,0,24,263.4134749021614,69,262.83226100576576,0.34782608695652173
60,0,281.5923020763439,1.1264412816381082,0,62,283.74088100204244,17,282.61260466155363,3.6470588235294117,0.9999926126663506,7.387333649304096e-06,-11.81573630598535,1,274.7767063281499,0.7120127020170912,0,42,276.50924601004226,39,275.7955309897661,1.0769230769230769,0,260.56617589545203,0.4125800887704827,0,62,261.9968944246648,17,261.582959276333,3.6470588235294117,0,272.9443864582572,0.5828885603696108,0,12,274.5450867435429,23,273.9609256913536,0.5217391304347826
61,0,286.2403630769695,0.5315468143671751,1,14,287.7891246789368,57,287.2559506078833,0.24561403508771928,0.0,1.0,inf,1,279.00742043269565,0.23133395542390645,0,69,280.2577825062326,61,280.02481378795346,1.1311475409836065,1,264.49527704453794,0.7286013177945279,0,19,266.2451863780152,37,265.5153469387442,0.5135135135135135,0,277.04251568589825,0.6481190745835193,0,9,278.70831334980903,7,278.05907388194464,1.2857142857142858
62,1,290.28724181768484,0.5647912062122487,1,55,291.87109630246414,95,291.3047054937924,0.5789473684210527,0.0,1.0,inf,1,282.75603831146145,0.41465534473536536,0,58,284.1896858236869,58,283.77353359240806,1.0,1,268.7439514169819,0.5979870056034997,0,46,270.3605600228184,36,269.7614000807516,1.2777777777777777,0,281.2070791788865,0.09831214090809226,0,45,282.3239848706871,60,282.22447806497803,0.75
63,1,294.36921936715953,0.9813321776455268,1,46,296.36948208278045,36,295.38664551248075,1.2777777777777777,0.0002588512286867406,0.9997411487713133,8.25899818317787,1,286.68802419671556,0.5145884213852696,0,26,288.2216735262191,84,287.70545429259073,0.30952380952380953,0,272.85915479046525,0.6501204540836625,0,45,274.527909091732,92,273.8765777752851,0.4891304347826087,1,284.8224702064181,1.064583404106088,0,26,286.90577990195015,84,285.8399548208108,0.30952380952380953
64,0,298.8691209969693,1.596643402823247,0,78,301.48546807235107,34,299.88660482119303,2.2941176470588234,0.9996648553003114,0.0003351446996886387,-8.000612979155868,1,290.7226979197003,0.4133694208576344,0,14,292.1540623737965,57,291.7390088074608,0.24561403508771928,0,277.02456687478116,0.8978905317489989,0,6,278.9409928834066,26,278.0418290697271,0.23076923076923078,1,289.404290916631,0.413065223779995,0,3,290.83804944111034,18,290.42361651576357,0.16666666666666666
65,0,303.98341296450235,2.0141894096741453,0,40,307.0163179989322,15,305.0002232094994,2.6666666666666665,0.9466940394638597,0.053305960536140284,-2.8769278021300826,0,294.65229210502,0.8808922375901602,0,37,296.55250006518327,52,295.66985454637324,0.7115384615384616,0,281.4396856261883,0.8146922434680164,0,53,283.27311364247,57,282.45716984546743,0.9298245614035088,0,293.33737586188363,0.3144480956834741,0,58,294.67017691623187,58,294.3543547980371,1.0
66,0,309.51426605152665,0.9793627980398014,1,7,311.5144904462504,54,310.533607848105,0.12962962962962962,0.0,1.0,inf,0,299.0520702386857,0.8636027834145352,0,50,300.9349638558342,7,300.0693632484181,7.142857142857143,0,285.77153023757273,1.1478559639072046,0,71,287.9380966903991,69,286.7889848272898,1.0289855072463767,1,297.1694152384298,0.06423535529756919,0,69,298.2521678977646,61,298.1865928902989,1.1311475409836065
67,1,314.01277074526297,0.6961114925798029,1,53,315.7297217110754,55,315.03193199890666,0.9636363636363636,2.269610599459071e-08,0.999999977303894,17.60107244656649,1,303.43355309264734,0.7809319017687812,0,54,305.23315755749354,78,304.4506414607167,0.6923076923076923,0,290.4365970384679,0.8814804835710675,0,50,292.3368144801352,7,291.4539978998946,7.142857142857143,0,300.7504533326137,1.0478193812305108,0,56,302.81699268420925,59,301.76799602090614,0.9491525423728814
68,0,318.2280383557081,0.882113371451851,1,38,320.12938843749,43,319.24551585892914,0.8837209302325582,5.949654546810734e-08,0.9999999405034545,16.63734752594333,0,307.73120398033643,0.5479932081070729,0,56,309.2984414049424,59,308.74884187837597,0.9491525423728814,1,294.8351836678921,0.5647675025975332,0,97,296.4186984000844,61,295.85265208472265,1.5901639344262295,1,305.3155546617927,0.2817275548004545,0,32,306.61604248324875,16,306.3330665353569,2.0
69,0,322.6265775777283,1.3644849548581988,1,86,325.0100531199132,59,323.64402979711303,1.4576271186440677,0.007717886870783119,0.9922821131292169,4.856466849922307,0,311.7965312844608,0.7313213134766556,0,6,313.546785111248,26,312.8139258248848,0.23076923076923078,0,298.91741366137285,0.8975345817161724,0,77,300.8339720154763,72,299.9350938309799,1.0694444444444444,1,309.114672806405,0.5481370103661902,0,46,310.6812168987817,36,310.13178843370406,1.2777777777777777
70,0,327.5082334684557,0.9457498140982352,1,87,329.45795206644107,85,328.5110688220011,1.0235294117647058,3.983795515694055e-10,0.9999999996016204,21.643615917518982,0,316.0451396817225,0.931210775335785,0,96,317.9951798594557,89,317.06255555542884,1.0786516853932584,1,303.3333166090888,0.9147770235431381,0,52,305.26577814790653,68,304.3497215214302,0.7647058823529411,1,313.18085423269076,0.33090673631522804,0,25,314.5302553595975,37,314.19794141559396,0.6756756756756757
71,1,331.9566341426107,0.6147526088170707,1,15,333.590638078982,56,332.97431549738394,0.26785714285714285,2.220446049250313e-16,0.9999999999999998,36.04365338911715,0,320.4935036152019,0.631569174816832,0,22,322.14415503141936,31,321.51093015557854,0.7096774193548387,1,307.7642709898064,0.9314663799013942,0,50,309.71434711810434,62,308.7815979747684,0.8064516129032258,0,317.0288663247484,0.06441431795246899,0,60,318.1123778964393,61,318.04653543262975,0.9836065573770492
72,0,336.08873902028427,0.9479834896046668,0,95,338.0558248994639,16,337.1062643259065,5.9375,0.9999999999992192,7.808621946190185e-13,-27.878377707989692,0,324.64226071344456,0.6979986994410865,0,95,326.3593570617377,16,325.6597465130035,5.9375,0,312.2127980834921,0.9974660780862905,0,54,314.2304197840276,80,313.23199686798034,0.675,0,320.6105566647602,0.3815211748587899,0,12,322.0107195879682,3,321.62795634096256,4.0
73,0,340.553907667927,0.6813547751517035,1,28,342.2542850302416,18,341.57146576361265,1.5555555555555556,0.008893137080201896,0.9911068629197981,4.713542497244707,0,328.85778906423366,0.648886283277534,0,7,330.52590652694926,54,329.8746162969037,0.12962962962962962,1,316.72818097274285,0.5291661761584692,0,66,318.2782759059337,59,317.7477364974329,1.11864406779661,0,324.5093262074515,0.38150142185622826,0,22,325.90940063697053,31,325.5266768960864,0.7096774193548387
74,1,344.75257994653657,0.6478306799544953,1,16,346.4196979046683,10,345.7702423383598,1.6,0.006664099632313847,0.9933359003676862,5.004334019510585,0,333.02482326939935,0.3812829530215822,0,9,334.42345454072347,7,334.04050284955883,1.2857142857142858,1,320.7766952664824,0.9474679348641075,0,55,322.74301630735863,95,321.79444457177306,0.5789473684210527,0,328.4089779215865,0.364712905138731,0,38,329.79160289716674,43,329.4255440188572,0.8837209302325582
75,1,348.9178249199758,0.5815552291460335,1,37,350.5183233290445,54,349.93525067024166,0.6851851851851852,2.521294284463238e-11,0.9999999999747871,24.403663648290106,0,336.9217802717467,0.5311880988301709,0,60,338.47212132799905,40,337.9393103180919,1.5,1,325.2420871236245,0.7476408925722353,0,58,327.008741121972,58,326.259748725337,1.0,1,332.2901885784231,0.581082736083772,0,42,333.89030575356446,39,333.30792840226786,1.0769230769230769
76,0,353.0165491096559,0.6148008062154986,1,7,354.65025121934013,54,354.0339448352461,0.12962962962962962,0.0,1.0,inf,1,340.9710329346708,0.4437002370832488,0,53,342.43731604964705,40,341.9919431238086,1.325,0,329.50843652989715,0.46389773610280827,0,53,330.9910822857055,15,330.5256801569485,3.533333333333333,0,336.389831285167,0.38084641052410007,0,71,337.7893455180456,69,337.40703461604426,1.0289855072463767
77,1,357.148450925888,1.5796877752873115,0,94,359.7316926709027,46,358.15056608302984,2.0434782608695654,0.999449165659358,0.0005508343406419287,-7.503525460103186,1,344.9356287436676,1.0145271869259886,0,41,346.96909832040546,7,345.9529308397905,5.857142857142857,0,333.4899381887517,0.4469417134532705,0,55,334.956658241339,60,334.5081335180439,0.9166666666666666,1,340.28743816300994,0.8979861365514807,0,42,342.2041071342537,67,341.304863123165,0.6268656716417911
78,1,362.2300895129447,0.5980442895088345,1,53,363.84707026637625,40,363.2475160533213,1.325,0.000477263218764179,0.9995227367812358,7.646965020819668,1,349.46728222450474,0.8978533960180357,0,42,351.3842873927206,67,350.4848774559796,0.6268656716417911,1,337.454662787728,0.36478875688044354,0,16,338.83818613225594,10,338.4720766860992,1.6,1,344.70532510761404,0.5148467913386412,0,33,346.23612604656955,25,345.7200442941976,1.32
79,0,366.3455283428775,1.0313678517122753,1,77,368.39570307842223,72,367.3628193772747,1.0694444444444444,2.09087818170417e-08,0.9999999790912182,17.683096562685293,0,353.8833894188283,0.4642197109060362,0,60,355.3666084083379,61,354.9006109224865,0.9836065573770492,1,341.33658257924253,0.34795006742933765,0,33,342.7035283697187,25,342.35423825506587,1.32,1,348.7349270361592,0.8801467572920956,0,6,350.6354099588352,8,349.75368295708904,0.75
80,0,377.92622944992036,1.1476651493576355,1,37,380.0919101757463,52,378.9427208806155,0.7115384615384616,9.506595510799798e-11,0.999999999904934,23.076450200828194,0,364.8967274718452,0.5645419227075763,0,54,366.47922255133744,80,365.91310472990153,0.675,1,352.2341448151856,0.7977824430563487,0,28,354.04956713155843,82,353.2505564435851,0.34146341463414637,0,360.16545791132376,0.6811687013832852,0,80,361.8642886094749,60,361.1819114162354,1.3333333333333333
81,0,382.59001151210396,0.4983917062636465,1,60,384.1068972137873,70,383.60769602732034,0.8571428571428571,2.8284263819955413e-11,0.9999999999717157,24.288715514668343,1,368.9774076406029,1.0812573530711234,0,72,371.07767809944926,51,369.9948768476024,1.411764705882353,0,356.54825157806044,0.3317924633738585,0,60,357.8983780371491,61,357.5653269091272,0.9836065573770492,1,364.3627972538234,0.4316026759915985,0,75,365.81312740640715,70,365.38027831260115,1.0714285714285714
82,1,386.6056022035191,1.3146242929506116,0,58,388.93865649198415,6,387.6229181267554,9.666666666666666,0.9999999677215338,3.227846619009586e-08,-17.248865478191394,1,373.5759520775173,0.5814461922855116,0,46,375.17639912862796,40,374.59336479072226,1.15,1,360.3968661382678,0.6980611190665513,0,15,362.113546487235,42,361.4142519873567,0.35714285714285715,0,368.3123969383887,0.48100269673159346,0,54,369.8119718526723,80,369.3295769606484,0.675
83,0,391.437181728892,0.9124153482844122,1,14,393.35396645299625,7,392.4400783168967,2.0,0.01895059785238784,0.9810494021476122,3.9467873372959468,0,377.6746825881419,0.8146298238425516,0,51,379.50821529567474,7,378.6919724373729,7.285714285714286,0,364.6131182410172,0.3461015765205957,0,15,365.9791561810998,42,365.63166003889637,0.35714285714285715,0,372.31048247229774,0.3964999166200869,0,28,373.72726601123577,41,373.3293715288746,0.6829268292682927
84,1,395.8524845787906,0.698055588232819,1,32,397.56941065576393,16,396.8698293414782,2.0,0.1794941285278283,0.8205058714721717,1.5197785692310923,0,382.0065394464182,0.9313557627610862,0,58,383.9565164143569,58,383.02364361693617,1.0,1,368.47848102165153,0.2963582477532327,0,43,369.79459153447533,93,369.49684662226355,0.46236559139784944,1,376.22557633486576,0.41468497429741547,0,41,377.6590196005418,7,377.24305857886793,5.857142857142857
85,1,400.067614312924,0.5147748902672902,1,87,401.60146472853376,89,401.0851190753747,0.9775280898876404,2.80215850523291e-11,0.9999999999719784,24.298046007986002,1,386.45487296016654,1.2306520799756981,0,87,388.7053646137356,89,387.4729533266509,0.9775280898876404,1,372.2932301539113,0.5474262954667211,0,75,373.85980427096365,70,373.3110592615558,1.0714285714285714,0,380.1586356011685,0.862721007084474,0,71,382.04105514497496,64,381.1769996215007,1.109375
86,1,404.10216635710094,1.1311239409842528,1,6,406.24979002500186,8,405.1171138890204,0.75,0.00023788299568316962,0.9997621170043168,8.343493708657231,0,391.2041446650401,0.8981208523618989,0,80,393.1206315130694,60,392.2207174783689,1.3333333333333333,0,376.35840219905367,0.4148279864457436,0,9,377.79167163785314,7,377.37561145582004,1.2857142857142858,1,384.5411633917247,0.7122410472948104,0,88,386.27317408681847,96,385.55958509101765,0.9166666666666666
87,1,408.74820266949246,1.0976776728057303,1,72,410.8653126079007,51,409.7659448636696,1.411764705882353,0.0022817387419947766,0.9977182612580052,6.080533174639581,0,395.6186163063976,0.6645314930938184,0,12,397.30226322606904,3,396.63604877266334,4.0,1,380.29022689937847,0.7480517561780289,0,26,382.0569610951934,84,381.30766647675773,0.30952380952380953,1,388.771389595815,1.6977770702214912,0,58,391.4878791302326,6,389.7888343089726,9.666666666666666
88,1,413.3633934010868,0.9976541271898896,1,62,415.38046557159396,43,414.3811004348099,1.441860465116279,0.00432913111498201,0.995670868885018,5.438049894453994,0,399.80058935214765,1.014672964462079,0,71,401.8342295952607,69,400.81788196676644,1.0289855072463767,0,384.5555602085078,0.5665828083292581,0,71,386.1408669378725,64,385.57304442778695,1.109375,1,393.98740466183517,0.7471415353938937,0,52,395.75300819275435,68,395.00464789388934,0.7647058823529411
89,0,417.8787533767754,0.7314591897884384,1,60,419.6286599448067,40,418.8957319178735,1.5,0.01236426830954751,0.9876357316904525,4.380503212239366,0,404.3323696476291,0.9647257841425017,0,59,406.31594261183636,65,405.3496077438467,0.9076923076923077,0,388.637528671592,0.46463847561972216,0,95,390.12096020393074,16,389.6550772858318,5.9375,0,398.2516116517363,0.6813318615895696,0,14,399.9517369651585,57,399.269098241406,0.24561403508771928
90,1,422.1292323883972,1.0813209579209797,1,75,424.2272707519587,70,423.1443482163595,1.0714285714285714,3.100376855247333e-08,0.9999999689962314,17.289157042637253,1,408.8142588614137,0.8813137678080238,0,74,410.7145371424267,60,409.83158663648646,1.2333333333333334,1,392.6213643514202,0.5466543459915556,0,17,394.18649649544386,82,393.6385107934475,0.2073170731707317,1,402.45120244746795,1.2973715794505551,0,98,404.7669818990398,73,403.46823827241315,1.3424657534246576
91,0,426.72545781655936,1.3643853995017707,1,12,429.10922214837046,3,427.74295349261956,4.0,0.09747209358890307,0.9025279064110969,2.225633493525957,0,413.21350050211186,0.7477384727098979,0,14,414.9801726732985,57,414.23064733919455,0.24561403508771928,1,396.68489215226145,0.8812142123933882,0,94,398.5848350264714,46,397.70229696430033,2.0434782608695654,0,407.2654411607655,0.8813295701984316,0,53,409.1652915906161,57,408.28270019521005,0.9298245614035088
92,0,431.6071287196246,0.6647148014744744,1,87,433.2909502562834,76,432.62464493885636,1.144736842105263,1.5635272077041407e-07,0.9999998436472792,15.671151195047734,1,417.4779729730799,0.5447126206709072,0,10,419.0449524227879,44,418.49866508849664,0.22727272727272727,0,401.08352539886255,0.53137891337974,0,12,402.633501813747,3,402.1008452727692,4.0,0,411.66377732140245,1.3981769509846345,0,15,414.0799465402961,42,412.68123270123033,0.35714285714285715
93,0,435.7890014198492,0.9813400788698345,1,24,437.7893787032226,90,436.80649670085404,0.26666666666666666,0.0,1.0,inf,0,421.5433476845501,0.8313586862641387,0,86,423.3939150318038,59,422.5607852866524,1.4576271186440677,1,405.1331434933236,0.46885219734394923,0,24,406.69885756232543,69,406.22868309542537,0.34782608695652173,0,416.5798260466545,1.645790189388208,0,37,419.24549808114534,52,417.59832399274455,0.7115384615384616
94,0,440.2876791503513,1.2144320562365465,1,60,442.52108559629414,61,441.3051266289549,0.9836065573770492,1.110074487886692e-08,0.9999999888992551,18.31625361357467,0,425.89185360301053,0.8814579650643282,0,24,427.79220971104223,90,426.90925564954523,0.26666666666666666,0,409.19748353981413,0.8480547586223111,0,62,411.0641666146694,17,410.21484963578405,3.6470588235294117,0,421.744094429072,0.8975444582174532,0,78,423.6607523385319,34,422.7617346975021,2.2941176470588234
95,1,445.0194840186159,0.7646336558973417,1,33,446.80307152104797,25,446.0368552504224,1.32,0.0008880397465982348,0.9991119602534018,7.025605622003602,1,430.2913058112608,0.5810262423474342,0,54,431.8912317767972,31,431.30839101882884,1.7419354838709677,0,413.56289846851723,0.7143957105581649,0,40,415.29624605039135,15,414.5805019962718,2.6666666666666665,1,426.1591535262414,0.4811658568796702,0,4,427.6594869578257,22,427.1768637204659,0.18181818181818182
96,1,449.30144426436163,0.6166062355041504,1,40,450.937049383414,93,450.31883682950865,0.43010752688172044,0.0,1.0,inf,0,434.3890885703149,0.7312853629118763,0,55,436.1394577549072,60,435.40661585127236,0.9166666666666666,1,417.79471913923044,0.48103430157061666,0,88,419.29507666954305,96,418.81265767879086,0.9166666666666666,0,430.1577281457721,0.9813096591387875,0,77,432.1576515039196,72,431.17507883440703,1.0694444444444444
97,0,453.4335677099298,0.5814070812775753,1,35,455.03406572394306,62,454.45095513924025,0.5645161290322581,4.907185768843192e-14,0.9999999999999509,30.645490687599356,0,438.63783049822086,1.6478701860760339,0,53,441.3044609509525,15,439.65508202655474,3.533333333333333,1,421.79321711690864,0.29814945481484756,0,54,423.11018096172484,78,422.8107428175863,0.6923076923076923,1,434.6562178271706,0.6980638845125213,0,58,436.37294558348367,58,435.6736143429298,1.0
98,0,457.53191461623646,0.5814323651138693,1,53,459.13230872916756,57,458.54933483561035,0.9298245614035088,6.0193487971815784e-09,0.9999999939806512,18.928286750683128,1,443.8027258425718,1.1649644800345413,0,15,445.9869689094485,42,444.8201488273917,0.35714285714285715,0,425.6085710877087,0.6147853988222778,0,7,427.2420819878462,54,426.6259999984177,0.12962962962962962,0,438.8717307705665,0.4497257090988569,0,55,440.3542761808494,60,439.9037445471622,0.9166666666666666
99,0,461.630702015711,0.9462049244903028,0,62,463.580909699318,16,462.63311109831557,3.875,0.9999961955809994,3.8044190006333734e-06,-12.479343467540708,1,448.4845416540629,1.5310095312306657,0,43,451.0348475498613,97,449.50218824343756,0.44329896907216493,1,429.7406984838308,1.081294093746692,0,58,431.8406398567604,6,430.75803416012786,9.666666666666666,1,442.85362314485246,0.5478146405075677,0,56,444.42010323732393,46,443.871092351852,1.2173913043478262
