,self_acceptUp,self_cue_times,self_decision_times,self_decisions,self_punishment_values,self_response_times,self_reward_values,self_trial_times,self_punishment_reward_ratio,self_prob_reject,self_prob_accept,self_SV,harm_other_acceptUp,harm_other_cue_times,harm_other_decision_times,harm_other_decisions,harm_other_punishment_values,harm_other_response_times,harm_other_reward_values,harm_other_trial_times,harm_other_punishment_reward_ratio,harm_other_prob_reject,harm_other_prob_accept,harm_other_SV,harm_self_acceptUp,harm_self_cue_times,harm_self_decision_times,harm_self_decisions,harm_self_punishment_values,harm_self_response_times,harm_self_reward_values,harm_self_trial_times,harm_self_punishment_reward_ratio,harm_self_prob_reject,harm_self_prob_accept,harm_self_SV,other_acceptUp,other_cue_times,other_decision_times,other_decisions,other_punishment_values,other_response_times,other_reward_values,other_trial_times,other_punishment_reward_ratio,other_prob_reject,other_prob_accept,other_SV
0,0,0.0040391031361650676,1.2911836223647697,1,14,2.3190753203380154,57,1.0265623179002432,0.24561403508771928,2.6401103525586223e-12,0.9999999999973599,26.660200399429687,1,0.004495003464398906,1.3895229836634826,0,32,2.4197119610616937,16,1.0285075980209513,2.0,0.5969842409039878,0.4030157590960121,-0.39291505025971296,0,0.004300633474485949,1.9205220335279591,1,60,2.953360289655393,61,1.03125643209205,0.9836065573770492,0.09432601251585804,0.905673987484142,2.261922403947384,1,0.004694904302596115,1.0886200718523469,1,24,2.119320258134394,69,1.0292273990489775,0.34782608695652173,5.769735622607186e-08,0.9999999423026438,16.66805442609025
1,1,4.820272947603371,1.5322715411894023,1,53,7.372529436979676,40,5.838888219470391,1.325,0.3078205784368728,0.6921794215631272,0.8103281260359587,1,4.920404700445943,0.5822578128281748,0,97,6.5224151656002505,61,5.93877621970023,1.5901639344262295,0.9999613429939755,3.865700602448152e-05,-10.160743873183497,1,5.4539653255051235,1.6659842647204641,1,52,8.123481435104623,68,6.4560054202447645,0.7647058823529411,0.00022569189212695573,0.999774308107873,8.396114080651811,1,4.62007581218495,0.7321119365660707,0,87,6.356369863948203,89,5.622126178510371,0.9775280898876404,0.9952334315711789,0.004766568428821035,-5.341350675190256
2,0,9.873484891882981,1.1323288250277983,1,71,12.008980920523754,69,10.875331406743499,1.0289855072463767,0.2758264774608543,0.7241735225391457,0.9652590725369594,1,9.023077090227162,1.0322835905390093,1,15,11.0756747147243,19,10.04157700430369,0.7894736842105263,0.03451659541644858,0.9654834045835514,3.331188678359166,1,10.624206964537734,0.9828978115692735,1,50,12.610888274793979,62,11.626107602758566,0.8064516129032258,0.0003454504932071112,0.9996545495067929,7.970315705131934,0,8.856508332813974,0.9658774007402826,1,24,10.842072410712717,90,9.874853382993024,0.26666666666666666,2.2015012035581094e-10,0.9999999997798499,22.236711436807667
3,1,14.509939535913873,1.3656767097709235,0,69,16.895744996058056,61,15.5285840423021,1.1311475409836065,0.6500087684678009,0.3499912315321991,-0.619077751344669,1,13.576305034468533,0.5484769412723836,1,15,15.12875154815265,56,14.57821199366299,0.26785714285714285,0.0019059222420990674,0.9980940777579009,6.260881530139685,1,15.110496571855037,1.3324564297217876,0,58,17.463150492549175,6,16.129107102999114,9.666666666666666,0.9999738595614351,2.6140438564891407e-05,-10.552000931588868,1,13.342688113203621,1.148952989722602,1,26,15.495239318042877,84,14.34466302288638,0.30952380952380953,2.5719779639388207e-09,0.999999997428022,19.778590595711183
4,0,19.396589833893813,1.0153911794768646,0,62,21.431975838073413,17,20.41526396984409,3.6470588235294117,0.9999889414323464,1.1058567653624611e-05,-11.41229401853358,0,17.629074115408002,0.715432068289374,1,12,19.348341830438585,23,18.63084596376575,0.5217391304347826,0.013881935304921544,0.9861180646950785,4.263187711954958,1,19.96354101029283,1.099181631245301,1,40,22.066201943307533,93,20.965437302846112,0.43010752688172044,5.827427429494492e-10,0.9999999994172573,21.26327529061868,0,17.998889088601572,0.9655020928330487,1,56,19.98177702364046,59,19.01427592241089,0.9491525423728814,0.46428584564940967,0.5357141543505903,0.14310031549126184
5,0,23.932915490528103,0.5985817312030122,1,35,25.534710252424702,62,24.93484970893769,0.5645161290322581,2.821205791203596e-08,0.9999999717879421,17.383516336645737,0,21.84829027498199,0.7318033939664019,0,62,23.58450136394822,17,22.85058478897554,3.6470588235294117,0.9984477386104315,0.001552261389568511,-6.466488982893157,1,24.566955522066564,1.799625087165623,1,46,27.386752421225538,36,25.585076967749046,1.2777777777777777,0.027139388839682144,0.9728606111603179,3.5792546798012252,1,22.482360331137897,0.8821900598704815,1,28,24.385057609761134,82,23.50071288747131,0.34146341463414637,1.040305275257225e-08,0.9999999895969472,18.3811665295675
6,1,28.035862052609446,1.3994164949690457,1,87,30.454619151365478,89,29.053874066419667,0.9775280898876404,0.6882926065149391,0.311707393485061,-0.7921491413188698,0,26.08466037598555,0.8655034755502129,1,28,27.97017131818575,41,27.103096685241326,0.6829268292682927,0.08264240312466986,0.9173575968753301,2.4069744562919078,0,29.887131482217228,1.2323618126101792,0,68,32.14012377259496,63,30.905482063244563,1.0793650793650793,0.8315845847912999,0.16841541520870013,-1.5968993821422226,0,26.884996177774156,1.082418010031688,1,7,28.970990279514808,54,27.886873902461957,0.12962962962962962,1.9399826189925307e-09,0.9999999980600174,20.060586821253526
7,1,32.955941617896315,0.5986121508904034,1,55,34.5739836563298,95,33.97406622406561,0.5789473684210527,1.8402583346066592e-08,0.9999999815974167,17.81077476454119,1,30.47097941536049,0.8487359037389979,0,42,32.3396311316028,39,31.489361601270502,1.0769230769230769,0.6508262141406029,0.349173785859397,-0.6226729023890716,1,34.64041987077508,2.3500955059862463,0,58,38.01023286867712,58,35.65854368683358,1.0,0.06948801538032856,0.9305119846196714,2.594580658632227,1,31.471532895739074,1.6160355238826014,1,52,34.090927227793145,68,32.47330553420761,0.7647058823529411,0.013873294863198105,0.9861267051368019,4.26381909120413
8,0,37.07532034504402,1.6325060098606627,0,53,39.727524883899605,15,38.09373255558603,3.533333333333333,0.9993828186516577,0.0006171813483423271,-7.389730285844067,0,34.840488216330414,0.7987654345342889,0,95,36.64267132311943,16,35.842259669618215,5.9375,0.9999983482939343,1.6517060656505798e-06,-13.313700173350465,0,40.510871484701056,1.2324455655325437,0,87,42.76369784948474,85,41.52934650993848,1.0235294117647058,0.9983419861854823,0.001658013814517734,-6.400475500425898,1,36.59167211521708,1.0822410227410728,0,88,38.67727826710325,96,37.59344514874101,0.9166666666666666,0.9805195208894996,0.01948047911050049,-3.918669661648675
9,1,42.2284641412989,1.7333299094752874,0,74,44.96518011816079,60,43.23049159409129,1.2333333333333334,0.9719764066898015,0.028023593310198595,-3.546284757619823,0,39.143676160645555,0.6488228171365336,0,62,40.81205330953526,16,40.161648273293395,3.875,0.9985657384504889,0.0014342615495110446,-6.54566987077912,1,45.26416816953861,1.899337285256479,1,66,48.18352477328153,59,46.282620281243,1.11864406779661,0.8201051432104681,0.1798948567895319,-1.5170600041923914,0,41.178162215976045,1.5828152438189136,0,58,43.780664532008814,58,42.19634015536576,1.0,0.7289199227667305,0.2710800772332695,-0.9891496154847131
10,0,47.465444611458224,2.149775506608421,0,87,50.63487005457864,85,48.48361860025034,1.0235294117647058,0.8913067052018643,0.10869329479813572,-2.1041584872196744,0,43.312794641402434,0.7655866358836647,1,9,45.08194907270081,7,44.314572810719255,1.2857142857142858,0.02629911194322443,0.9737008880567756,3.6115689878315163,0,50.68433563588769,1.1989949649432674,0,95,52.90382794305333,16,51.70275890812627,5.9375,0.9999999999994392,5.607857135147088e-13,-28.209437534701994,0,46.28137899974536,1.015583179105306,0,50,48.3004086905421,7,47.28323973680381,7.142857142857143,0.9999840291127845,1.5970887215501886e-05,-11.044727071130986
11,0,53.13619726183242,0.6157198701839661,1,7,54.771351760296966,54,54.154269324892084,0.12962962962962962,1.8562928971732617e-13,0.9999999999998144,29.315024776032267,1,47.58236803484033,1.382451392681105,0,74,49.96823709977616,60,48.584156080687535,1.2333333333333334,0.9960212969164135,0.00397870308358651,-5.5228127320045814,1,55.40438557158632,0.9987796567438636,1,25,57.42303876930964,37,56.42262869604747,0.6756756756756757,2.2917496711460927e-07,0.9999997708250329,15.288779847418258,1,50.801202565518906,1.0656583394447807,0,74,52.88677237179945,60,51.81951522070449,1.2333333333333334,0.9993863106090175,0.0006136893909825383,-7.395407757919724
12,1,57.27189003082458,0.9822676893381868,1,32,59.25735692374292,16,58.27380212582648,2.0,0.020735965178020677,0.9792640348219793,3.8549316637909317,0,52.46887848123151,3.333345316845225,1,7,56.822942374434206,54,53.48755775297468,0.12962962962962962,0.00043347001349347547,0.9995665299865065,7.7432543731728956,1,59.923620496556396,0.9990479031112045,0,72,61.92607501022576,51,60.92545950526255,1.411764705882353,0.9989017689251076,0.0010982310748923437,-6.812955672742287,1,55.38751488884736,1.3825209234055365,0,75,57.79023567360127,70,56.40610408670909,1.0714285714285714,0.9943879109481656,0.00561208905183442,-5.177204352766317
13,0,61.758434452465735,1.232236578289303,1,59,63.99372327166202,65,62.760252918014885,0.9076923076923077,0.002755654236385463,0.9972443457636145,5.891340934156033,1,59.3235549164383,0.8322278869454749,1,19,61.15918506827438,37,60.32525525876554,0.5135135135135135,0.0191507415054587,0.9808492584945413,3.9360773509038833,1,64.42678276191873,1.0487781752599403,1,14,66.47877475798305,8,65.42845821539231,1.75,8.670534986654488e-07,0.9999991329465013,13.95816428951922,0,60.29072021585307,2.049396050570067,0,40,63.343710925997584,15,61.29261058248812,2.6666666666666665,0.9899288186310802,0.010071181368919817,-4.587955024639303
14,0,66.49473798570398,1.0488986688433215,0,43,68.54672168548859,7,67.49663427825726,6.142857142857143,0.9919606853521539,0.008039314647846088,-4.815339638045771,1,63.659865560766775,0.9489407428336563,0,54,65.62883312824124,31,64.67821574673872,1.7419354838709677,0.9762751614200121,0.023724838579987827,-3.717221933684524,1,68.9796282871539,0.9654744385625236,1,55,70.94918963122473,95,69.98163993749768,0.5789473684210527,1.2585469916226444e-06,0.9999987414530084,13.585551425130094,1,65.84439220860077,0.9322320350911468,1,16,67.78017623668711,10,66.84618973592296,1.6,0.011084250342183077,0.9889157496578169,4.491083927938674
15,0,71.047918917684,0.7148813533276552,1,45,72.76622623954609,92,72.05003999991459,0.4891304347826087,2.720113023713111e-10,0.9999999997279887,22.025177497388132,1,68.12955273175612,0.6985811386111891,0,66,69.84802597921225,59,69.1478906708362,1.11864406779661,0.9813165869966807,0.01868341300331927,-3.9612590010853683,0,73.44958449465048,1.6495200997160282,0,60,76.1191286535759,40,74.46791453252081,1.5,0.9546646916302303,0.04533530836976975,-3.0472740074880598,1,70.28094956849236,0.7652994265663438,1,14,72.06700786763395,8,71.29941076658724,1.75,0.007940463546823762,0.9920595364531762,4.8278114673028245
16,1,75.26753527400433,0.7487064716842724,1,12,77.03585928719258,9,76.28588545997627,1.3333333333333333,6.422260432570326e-06,0.9999935777395674,11.955733987650623,0,72.34876731107943,0.7652184390753973,0,62,74.1179217423778,17,73.35064503576723,3.6470588235294117,0.9984477386104315,0.001552261389568511,-6.466488982893157,0,78.61948282571393,1.6328663054591743,1,12,81.25571505044354,3,79.6212526987656,4.0,1.0307892144290065e-06,0.9999989692107856,13.78518479073451,0,74.56700213924341,0.998930570014636,0,95,76.58599192889233,16,75.58546847314574,5.9375,0.9999999999994151,5.848825095844343e-13,-28.167365406166166
17,0,79.53690402586653,0.8156100432388484,1,7,81.37226277083391,54,80.55530596482276,0.12962962962962962,1.8562928971732617e-13,0.9999999999998144,29.315024776032267,1,76.61830791445391,1.299088396859588,0,46,78.92088074887579,40,77.62016193548334,1.15,0.7963862230555192,0.20361377694448074,-1.3638593239056958,1,83.75641213548079,1.0155567100009648,0,97,85.7753801967774,61,84.75817884804565,1.5901639344262295,0.9999999835625404,1.6437459630453926e-08,-17.92370296651595,1,79.08661632273288,1.3992738779779756,0,62,81.48936476174276,43,80.08845928205119,1.441860465116279,0.9987717221433596,0.0012282778566403813,-6.70091317442124
18,0,83.87310681855888,1.1824533679900924,0,95,86.07530967840285,16,84.89163833750354,5.9375,0.9999999999997174,2.825143142521503e-13,-28.895047175688468,1,81.42152884636016,0.8653774511039956,0,41,83.28994392110326,7,82.42337062051229,5.857142857142857,0.9503281743402768,0.04967182565972314,-2.9513694873891874,0,88.27618355321465,1.3493990135466447,1,45,90.6454185769544,60,89.29443813444232,0.75,3.7450046189491104e-05,0.9999625499538105,10.192465163890098,1,83.98984495832701,1.2658562649739906,0,72,86.25919000653084,51,84.9917329546006,1.411764705882353,0.999865646140378,0.00013435385962198032,-8.914899132316517
19,0,88.57656498455617,0.81584786993335,0,50,90.41154921175621,7,89.59453156635573,7.142857142857143,0.9997870470165138,0.00021295298348620808,-8.454226175765704,1,85.79120357293868,0.9822052697127219,1,43,87.793572753435,93,86.80967227718793,0.46236559139784944,0.030828463545941043,0.969171536454059,3.4480032161022023,0,93.14629185917147,1.7659670795692364,1,28,95.93196971462748,18,94.16452115650463,1.5555555555555556,0.00014356933880410594,0.9998564306611959,8.848548862579769,1,88.76009765906201,0.9824529729376081,1,42,90.76213222293882,67,89.77821357389621,0.6268656716417911,0.0002401458435941084,0.9997598541564059,8.334023962860662
20,0,99.91873240744462,0.5656324629526353,1,12,101.50186211978144,23,100.93575795405195,0.5217391304347826,6.50723075423798e-08,0.9999999349276925,16.54776669653433,0,97.31690801598597,1.032160331538762,0,77,99.36803403845988,72,98.33424368544365,1.0694444444444444,0.9944473814466024,0.005552618553397627,-5.187917559424985,1,105.45588927231438,1.3652824389428133,1,24,107.83966411917936,69,106.47308627539314,0.34782608695652173,4.0710324000770015e-11,0.9999999999592897,23.92453939465321,0,100.28573810223315,1.148663014988415,0,68,102.45315782091348,63,101.30287505604792,1.0793650793650793,0.9819900707278583,0.018009929272141702,-3.998657964991814
21,0,104.0030763396062,0.6653999695845414,0,51,105.67167116705969,7,105.00496710129664,7.285714285714286,0.999873364003198,0.0001266359968019103,-8.974067109725695,0,101.86875285184942,1.1825201332976576,0,45,104.07118287174671,42,102.88702481576183,1.0714285714285714,0.7311383406991212,0.26886165930087885,-1.0004057207831274,0,110.34074559852888,1.015273056240403,0,62,112.35965084513009,16,111.34282480429101,3.875,0.9999630549498296,3.6945050170329255e-05,-10.206041934018476,1,104.95386241211963,1.3990115574997617,1,58,107.35653499943146,58,105.95588275381306,1.0,0.7289199227667305,0.2710800772332695,-0.9891496154847131
22,0,108.17286918939499,0.6649061434000032,1,22,109.85768877493683,31,109.19142915273551,0.7096774193548387,8.539639094751195e-07,0.9999991460360905,13.973376050654347,1,106.57179067301331,0.8152639698528219,0,98,108.40727662760764,73,107.59027201922436,1.3424657534246576,0.9999185683451943,8.143165480568586e-05,-9.41566504590261,1,114.86051662120735,0.9322877386875916,1,26,116.79624218026584,84,115.86239237058908,0.30952380952380953,2.7327029528123603e-12,0.9999999999972673,26.625729903942087,0,109.85729766459554,0.865149105884484,0,77,111.74269956996432,72,110.87591491176863,1.0694444444444444,0.9959859477922193,0.004014052207780685,-5.513931892130465
23,1,112.35883780970471,0.5487665209511761,1,14,113.92727678561641,8,113.37725239060819,1.75,2.5214911846926924e-05,0.9999747850881531,10.588049783268783,1,110.90791642881231,1.0490219278581208,1,26,112.97748863705783,84,111.92627412093861,0.30952380952380953,0.001981463196658817,0.9980185368033412,6.221936290089588,1,119.29673541385273,1.0987818295689067,0,87,121.39930271742924,89,120.29881936035235,0.9775280898876404,0.9954551257842683,0.004544874215731724,-5.389199993485814,0,114.24366687670408,0.8821185538399732,1,35,116.1458221317007,62,115.26203681572224,0.5645161290322581,4.349075794785051e-05,0.9999565092420521,10.04291861170792
24,1,116.42817969742464,0.6819609245285392,1,19,118.11336550445412,37,117.43007124924043,0.5135135135135135,2.5087079080776675e-08,0.9999999749129209,17.5009128759234,1,115.47760814300273,1.1491793596505886,1,33,117.62995984205918,25,116.47909791783604,1.32,0.47137605324939535,0.5286239467506046,0.11462111336329196,0,123.90015624660009,1.1317322830000194,1,9,126.03605642259936,7,124.90256137766119,1.2857142857142858,7.29761837625631e-08,0.9999999270238162,16.43313262588079,1,118.64639556266775,0.8486011879431317,1,25,120.49914489057846,37,119.64828355894133,0.6756756756756757,0.0004310116426889943,0.999568988357311,7.748944350470948
25,1,120.61715868215833,0.48202571451838594,1,15,122.11614949896466,19,121.63284418203693,0.7894736842105263,1.14943998941186e-06,0.9999988505600106,13.6762345504836,0,120.1309864079376,1.0155452532490017,1,45,122.16630643693497,92,121.14921689043695,0.4891304347826087,0.04932980821272004,0.95067019178728,2.95863867351494,0,128.53627192835847,1.0988525454886258,1,37,130.63865592364164,52,129.53817019620328,0.7115384615384616,3.6007179915475973e-06,0.9999963992820085,12.534373689567111,0,122.9993714580196,1.1821819611213868,1,53,125.18517296755454,57,124.0013724417222,0.9298245614035088,0.28631159371027415,0.7136884062897259,0.9133657550747536
26,0,124.61705320088367,1.2158300921873888,0,77,126.83577513920318,72,125.61867374088615,1.0694444444444444,0.7631051609432075,0.23689483905679254,-1.1697795217973805,1,124.66699759605399,0.898690965550486,0,52,126.5692934927647,68,125.6689081108052,0.7647058823529411,0.5932326930439964,0.40676730695600355,-0.37734542720265907,1,133.139454144286,0.9649920691445004,1,28,135.10828146513086,82,134.1416246091394,0.34146341463414637,1.3491652239849827e-11,0.9999999999865083,25.02894997433321,1,127.68608694105933,0.7953133919800166,1,6,129.5045785588445,8,128.70755139247922,0.75,0.0002494220485583787,0.9997505779514416,8.296114669057648
27,0,129.33688269257254,1.3823676397732925,0,40,131.72230612878047,15,130.3387560715928,2.6666666666666665,0.6528970740917919,0.3471029259082081,-0.6317981443641917,1,129.07000163951307,0.6486138299078448,0,82,130.72200943801727,40,130.07179521620856,2.05,0.9998411140656289,0.0001588859343710316,-8.747165108528982,1,137.60891257498588,1.6653904881241033,0,69,140.27826789478422,61,138.61127859500994,1.1311475409836065,0.9338934536917032,0.06610654630829683,-2.648094578057215,0,132.00547356942843,1.4493755074072396,1,28,134.47540291277983,18,133.02369457046734,1.5555555555555556,0.1962305596606807,0.8037694403393193,1.4100221696047024
28,0,134.2232382750808,1.1823040349554503,1,45,136.40884897016804,60,135.22521674030577,0.75,9.839435989311696e-06,0.9999901605640107,11.529102327217844,0,133.22318928752793,0.9655380433832761,0,55,135.2089979081502,60,134.24122421487118,0.9166666666666666,0.8356302836570568,0.16436971634294323,-1.626068012342291,1,142.77936399138707,2.0664042145072017,1,53,145.86565517896088,40,143.79762054790626,1.325,0.3161270230590344,0.6838729769409656,0.7716280896266208,1,136.9754769866995,1.315654092541081,1,54,139.3113313356298,78,137.99395991316123,0.6923076923076923,0.0023558745770581035,0.9976441254229419,6.048484596138191
29,1,138.90990595573385,1.148875557773863,0,75,141.06199335902056,70,139.91178051993484,1.0714285714285714,0.6869938124809908,0.3130061875190092,-0.7861023268278019,1,137.71191484066367,0.8486991630634293,0,58,139.57846838820842,6,138.72778167352953,9.666666666666666,0.9985242490221139,0.0014757509778860868,-6.517111440236146,0,148.36625428887783,0.9322952448565047,1,12,150.3194245542254,23,149.38470403022075,0.5217391304347826,6.564678356468789e-09,0.9999999934353216,18.841562317510554,1,141.81210664274113,1.566049252243829,1,45,144.39835733656946,40,142.8304192979267,1.125,0.5315309182252752,0.46846908177472474,-0.1262912623041497
30,0,143.56298555459944,0.8319236900133546,1,56,145.3980302261043,59,144.56480006952188,0.9491525423728814,0.004140252246039866,0.9958597477539601,5.482849717184828,0,142.0788612763281,0.8776109084137715,0,80,143.98103707449627,60,143.10183486057213,1.3333333333333333,0.9988344124257251,0.001165587574274885,-6.7533636961084635,1,152.8193066285312,1.432518651810824,1,56,155.25533026107587,46,153.82118632852507,1.2173913043478262,0.3425684810161972,0.6574315189838028,0.6518690227018846,1,146.89848908939166,1.2658155736862682,1,10,149.1678799646761,44,147.90051496193337,0.22727272727272727,1.00991258911165e-07,0.9999998990087411,16.10823176829317
31,1,147.89935822348343,0.5156461913284147,1,14,149.43458719093178,57,148.91766929843288,0.24561403508771928,2.6401103525586223e-12,0.9999999999973599,26.660200399429687,0,146.4819905540935,0.7488419775909279,0,68,148.25089925748762,63,147.50037945604709,1.0793650793650793,0.9829552122604408,0.01704478773955916,-4.0547191042428175,0,157.75603998807492,1.0796561389433919,1,38,159.84152801673918,43,158.7601660046057,0.8837209302325582,6.046131495662799e-05,0.9999395386850434,9.713446356506724,0,151.66845497587929,0.8827913426357554,0,43,153.55420216453786,7,152.6703323055117,6.142857142857143,0.9996679728621468,0.00033202713785321776,-8.009961769595552
32,1,151.93539133749437,0.4988699281529989,1,15,153.45326843798102,56,152.95373046176974,0.26785714285714285,6.163736188113944e-12,0.9999999999938363,25.812337998193854,1,150.75113491134834,1.766390584904002,1,45,153.52094395863242,40,151.7528806856717,1.125,0.7611086904145198,0.23889130958548022,-1.1587674965550496,0,162.3422788300668,0.7989566440373892,1,14,164.16126822466322,7,163.3607076331682,2.0,1.1164611871672392e-06,0.9999988835388128,13.705345412757815,0,156.05464680562727,0.915447080595186,1,22,157.97359136080195,31,157.05658774006588,0.7096774193548387,0.0005761804791780678,0.9994238195208219,7.458513267905267
33,1,155.95448937384936,0.6987146692117676,0,98,157.6563961355132,73,156.95641924657684,1.3424657534246576,0.9999921770170247,7.822982975338181e-06,-11.75843679848198,1,156.02164854983857,0.732045566328452,1,24,157.773595311417,69,157.03993671124044,0.34782608695652173,0.004301817276092135,0.9956981827239079,5.444406626501393,1,166.66186575434403,0.9987934838718502,1,15,168.6807611244294,19,167.6804656188324,0.7894736842105263,9.272621748213083e-08,0.9999999072737825,16.193614490899666,1,160.47440459376958,0.8823216151649831,0,97,162.37680794704647,61,161.49283971784462,1.5901639344262295,0.9999999626003828,3.7399617126896776e-08,-17.101605332427457
34,1,160.1574420593679,1.8830516878078924,1,56,163.0600666467799,46,161.175736146688,1.2173913043478262,0.22814429101039257,0.7718557089896074,1.218819343007192,1,160.27430227298464,0.6820178132911678,0,72,161.95965321549738,51,161.27607372627244,1.411764705882353,0.9970566437429884,0.0029433562570115603,-5.82525706827694,1,171.18144201196264,1.1991253350570332,0,88,173.38417820409813,96,172.183280230558,0.9166666666666666,0.984708150040193,0.015291849959807015,-4.1650252987856184,1,164.87738058788818,0.8335825509420829,1,55,166.73036616222817,95,165.8957106257585,0.5789473684210527,4.0147633390996695e-05,0.999959852366609,10.122906915053843
35,1,165.5610007683863,0.5321147020003991,1,50,167.09631467393774,62,166.562853604235,0.8064516129032258,6.868559789585671e-05,0.9999313144021041,9.585902330371042,0,164.46045657194918,0.9320546527305851,1,35,166.39612247679906,62,165.4622564696183,0.5645161290322581,0.06697389206603954,0.9330261079339605,2.6341303104425684,0,175.8845335614169,1.966254288883647,1,60,178.85442636163498,70,176.88642629841343,0.8571428571428571,0.010589018811976825,0.9894109811880232,4.537292294562565,0,169.23052082859795,1.3824482321942924,0,62,171.63298245336046,17,170.2488872120739,3.6470588235294117,0.999998753837607,1.246162393096163e-06,-13.595440568390408
36,0,169.59729304237408,0.8325312937668059,1,28,171.44904800187214,18,170.61526792045333,1.5555555555555556,0.0013717434489405322,0.9986282565510595,6.590300072581219,1,168.8967393644707,0.7820227515621809,1,25,170.6995648403681,37,169.91520727860916,0.6756756756756757,0.06264804313028727,0.9373519568697127,2.705526386800005,0,181.35486389162543,0.9656553764798446,0,78,183.32405387841573,34,182.35682299887412,2.2941176470588234,0.999999433745265,5.662547349948793e-07,-14.384221231907372,0,174.13338877355272,1.082414059434086,0,51,176.21911186348007,7,175.13518630086037,7.285714285714286,0.9999896474254871,1.0352574512886444e-05,-11.478264971350335
37,0,173.94998686421604,1.5659947338426718,1,58,176.5191270733194,58,174.9518717000028,1.0,0.01606106980836486,0.9839389301916351,4.115165512789629,0,173.19970212405315,1.7157702404510928,0,28,175.91888332072995,18,174.20165649056435,1.5555555555555556,0.35759588440296286,0.6424041155970371,0.5858140349147964,1,185.82454711200262,1.13260576275934,1,17,187.97721367464692,82,186.84291823621606,0.2073170731707317,3.3306690738754696e-14,0.9999999999999667,31.033018095020868,1,178.72011670099164,1.1823676397762029,0,66,180.92241832608124,59,179.7385545904981,1.11864406779661,0.9851131566282447,0.01488684337175525,-4.192278686702219
38,0,179.02022593535366,0.9151571058609989,0,87,180.95519890330615,76,180.03878194808203,1.144736842105263,0.9936704691616995,0.006329530838300498,-5.056179515496481,0,178.41968075124896,0.698741138287005,1,22,180.13865691129467,31,179.43826836886,0.7096774193548387,0.05490315744915453,0.9450968425508455,2.8457165415361776,1,190.47759984672302,1.3825782072526636,1,54,192.86368342976493,78,191.47954591695452,0.6923076923076923,5.3638599821104194e-05,0.9999463614001789,9.833187963113618,1,183.4231047444773,1.1324157384369755,1,15,185.57584478844365,56,184.44161848568183,0.26785714285714285,3.6621443877393745e-08,0.9999999633785561,17.12263183319959
39,1,183.45627406168205,0.5815352463541785,1,25,185.04133680723317,37,184.45849193383765,0.6756756756756757,5.67589247824074e-07,0.9999994324107522,14.381867267478034,0,182.63918609544635,0.7485551633435534,1,15,184.39136278249498,42,183.64139014047396,0.35714285714285715,0.005752514452751489,0.9942474855472485,5.152349099736267,0,195.36448876150826,0.9818730234692339,1,7,197.36648460941797,54,196.382978403999,0.12962962962962962,1.694200335577989e-13,0.9999999999998306,29.40639535783253,1,188.07621278772422,0.8322713436646154,1,19,189.91216728460859,37,189.07810670990148,0.5135135135135135,3.198627227629647e-05,0.9999680137277237,10.350171751789556
40,1,194.54829797866114,0.6148266373784281,1,43,196.18221396105946,97,195.5660591287742,0.44329896907216493,1.865574361659128e-11,0.9999999999813443,24.704867048514668,0,193.9145629341947,1.5991905201226473,1,37,196.53293484852475,52,194.93214038095903,0.7115384615384616,0.19276581235403778,0.8072341876459622,1.4321377768816628,1,206.89018451322045,0.928556388040306,1,12,208.84116574584914,9,207.91097854622058,1.3333333333333333,2.261430037675538e-07,0.9999997738569962,15.302098051605892,1,199.4348234373756,0.6985542744660052,1,40,201.15274992048217,93,200.45251703205577,0.43010752688172044,1.0227227065229272e-07,0.9999998977277293,16.09562715757709
41,0,198.68307341614855,0.5986947186320322,1,15,200.2849313877814,42,199.68494916553027,0.35714285714285715,6.08339378871392e-10,0.9999999993916606,21.220288200150325,0,199.03328862560738,0.7654132041207049,0,51,200.80238458789245,7,200.0353642758273,7.285714285714286,0.9933223410879416,0.006677658912058458,-5.002287760895657,0,211.3415179426811,0.7654183399135945,1,6,213.11075573184644,26,212.3436504816782,0.23076923076923078,1.164728313796104e-10,0.9999999998835272,22.87336307704528,0,203.6532399935968,1.1655747840413824,1,12,205.8222723510553,23,204.65510626151809,0.5217391304347826,6.29882588726316e-05,0.9999370117411274,9.672499225799617
42,1,202.78612229901773,0.7156339444190962,1,54,204.52122800744837,78,203.80424730024242,0.6923076923076923,2.889061447630681e-06,0.9999971109385524,12.754575978125109,1,203.3029453768977,1.3788958441582508,0,50,205.6888136517373,62,204.30833005762543,0.8064516129032258,0.6087943392019587,0.3912056607980413,-0.4422470998171334,1,215.61130664433585,0.9652401674393332,1,43,217.59674904345593,97,216.6297548054281,0.44329896907216493,1.0891387791645002e-09,0.9999999989108612,20.637878562776574,0,208.32309664573404,1.1491505201847758,1,37,210.47592360310955,52,209.32488153109443,0.7115384615384616,0.0014654864157925829,0.9985345135842074,6.524101505897941
43,1,207.0220764008409,0.6487445950624533,1,6,208.69046184599574,8,208.04051626563887,0.75,3.940540914681989e-07,0.9999996059459085,14.746777255027089,0,208.1896573043923,0.7821321834344417,0,71,209.97526523405395,69,209.19145483169996,1.0289855072463767,0.985151685373541,0.01484831462645901,-4.1949092589789885,0,220.09763417750946,0.8990425697993487,1,24,222.01652816488058,90,221.11586307977268,0.26666666666666666,2.013944566670034e-13,0.9999999999997986,29.233510939001818,1,212.9761229113501,1.6490594586502993,1,53,215.62872369633988,55,213.97797693237953,0.9636363636363636,0.40539932085050223,0.5946006791494978,0.3830174940002032
44,1,211.1915326587041,0.5319136159669142,1,37,212.72656330555037,54,212.1933673217427,0.6851851851851852,1.1004219283572425e-06,0.9999988995780716,13.719815780048199,1,212.47577980093774,0.8820055664109532,1,3,214.3779856237379,18,213.4944092950027,0.16666666666666666,0.0032915172021290573,0.9967084827978709,5.713109718680966,0,224.51706446011667,1.032585417109658,0,96,226.5699354667886,89,225.53536605360569,1.0786516853932584,0.9999663416918829,3.365830811712295e-05,-10.299216975490406,0,218.12954838607402,0.8320307515386958,0,62,219.96517932803545,17,219.131436777403,3.6470588235294117,0.999998753837607,1.246162393096163e-06,-13.595440568390408
45,1,215.22767520458729,1.2823903557728045,1,58,217.51303286314942,58,216.2294190036191,1.0,0.01606106980836486,0.9839389301916351,4.115165512789629,0,216.87870206676598,1.165563722330262,0,87,219.0479102263489,76,217.88068843321525,1.144736842105263,0.999015225169525,0.0009847748304749532,-6.922112281387609,0,229.06999373828876,1.0491127918794518,0,87,231.12257556035183,76,230.07193704308884,1.144736842105263,0.9998293705027899,0.0001706294972100858,-8.67584539104109,0,222.46615888165252,1.3490288414323004,1,28,224.8348811162723,41,223.48433010502777,0.6829268292682927,0.0005478137857154453,0.9994521862142846,7.509027171961864
46,0,220.01428935448348,0.781896332046017,0,96,221.81583167242934,89,221.03266996015736,1.0786516853932584,0.9958094233477606,0.004190576652239402,-5.4707175469587845,1,221.5486207434733,0.7981787690368947,1,12,223.35041669053317,9,222.55082913416845,1.3333333333333333,0.04090823850939607,0.9590917614906039,3.1546552815514946,0,233.62314029996924,0.8823105534684146,1,41,235.52545832008764,22,234.6415564611234,1.8636363636363635,0.05910157491899215,0.9408984250810078,2.767577617735706,0,227.33617632360256,0.7822712448978564,0,71,229.13785019682837,64,228.35409312770935,1.109375,0.993530060333036,0.006469939666963919,-5.034097535112583
47,0,224.3168001643353,0.8822840843786253,0,62,226.2022688350262,17,225.3186478643911,3.6470588235294117,0.9999889414323464,1.1058567653624611e-05,-11.41229401853358,0,225.8518505642569,0.9824340100167319,0,87,227.85444690480654,85,226.86987759037584,1.0235294117647058,0.9979937591792661,0.0020062408207338497,-6.209484290413954,1,238.0259720968461,1.7826137627271237,1,46,240.82894137492985,40,239.04471378821472,1.15,0.0100455400041638,0.9899544599958362,4.5905301867413195,0,231.63866501003213,0.7820756897272076,1,9,233.4245664699847,7,232.64038747576706,1.2857142857142858,0.0011927183275687314,0.9988072816724313,6.730326837862356
48,0,228.70314211724326,0.7487357062054798,1,60,230.45499050866056,70,229.7050372246158,0.8571428571428571,0.0009006329884319042,0.9990993670115681,7.011511682572012,0,230.35455692927644,1.2994352603709558,1,38,232.6739293354476,43,231.37278267105285,0.8837209302325582,0.3741584253405472,0.6258415746594528,0.5144179585573632,1,243.32963648467558,0.9154356238286709,0,94,245.26508905661467,46,244.34807950997492,2.0434782608695654,0.9999999980960094,1.9039906865436503e-09,-20.079313790206403,0,235.9249360495014,0.9320597885234747,0,62,237.87699540346512,16,236.94330993913172,3.875,0.9999990441029852,9.558970147782274e-07,-13.860614698927684
49,1,232.95614823476353,0.9154889570636442,0,82,234.89124525185616,40,233.97454701323295,2.05,0.9999993620842379,6.379157620522882e-07,-14.265058958803767,0,235.17436449509114,1.3824758864648174,0,41,237.57761703187134,22,236.1927861870936,1.8636363636363635,0.8536669784633626,0.14633302153663738,-1.7636561690997663,0,247.7660089560377,0.9658256477559917,1,28,249.75171486081672,41,248.7843145001243,0.6829268292682927,4.2832505475765004e-07,0.9999995716749452,14.663383027560878,1,240.37816379620926,1.149054520399659,0,69,242.5468536358385,61,241.39610904471192,1.1311475409836065,0.9930534829072196,0.0069465170927803495,-4.96254412628571
50,1,237.39257364429068,1.180145421923953,1,42,239.59455250458268,39,238.41316303572967,1.0769230769230769,0.0020241563735798884,0.9979758436264201,6.200576063120675,0,240.07765159969858,2.1164244613755727,0,60,243.2138615034928,61,241.09615190884506,0.9836065573770492,0.9290604869397219,0.07093951306027813,-2.572346261209564,1,252.25238429158344,0.8318024063191842,0,98,254.10401480688597,73,253.27099600790825,1.3424657534246576,0.9999998020861667,1.979138333537385e-07,-15.435433888140661,0,245.04742825198628,1.6328406264947262,0,59,247.68382087146165,65,246.04930676679942,0.9076923076923077,0.3932833823596251,0.6067166176403749,0.4335313980568675
51,0,242.0955660334439,0.6649981925875181,1,37,243.76382466404175,52,243.0974702272215,0.7115384615384616,2.1205963159909302e-06,0.999997879403684,13.063811107106112,0,245.71472846473625,1.0319102579524042,0,60,247.749869136067,70,246.71664134984894,0.8571428571428571,0.8652641067711149,0.13473589322888516,-1.8597182702359112,0,256.60520176751015,1.449239211375243,0,80,259.058013910093,60,257.6069443813467,1.3333333333333333,0.9998639082711405,0.00013609172885957347,-8.902045321686739,0,250.1843864012044,1.2989283971837722,0,53,252.50351544984733,15,251.2028918461292,3.533333333333333,0.9999637105690533,3.628943094674345e-05,-10.223947727490824
52,0,246.26490258784906,1.6994317048229277,0,78,248.96733359538484,65,247.2666534979653,1.2,0.9817583330496333,0.018241666950366706,-3.985636811083779,0,250.25117145448166,0.9990131377562648,1,45,252.26979660287907,60,251.2694588257582,0.75,0.39535670976108583,0.6046432902389142,0.4248502611641773,1,261.55877380982565,1.0655034755473025,1,32,263.6442393200268,16,262.57703431697155,2.0,0.002106368447397644,0.9978936315526024,6.160681339330096,1,255.00425954713137,0.9154826360900188,0,58,256.94007478503045,6,256.02275551059574,9.666666666666666,0.9999996181373261,3.818626739363937e-07,-14.778204403423047
53,0,251.46863393849344,1.8993313593382481,1,60,254.38757809861272,40,252.48692565545207,1.5,0.9441996982622913,0.05580030173770863,-2.828558411683975,0,254.77087571185257,0.6154903397837188,1,7,256.40581766753166,54,255.78908920673712,0.12962962962962962,0.00043347001349347547,0.9995665299865065,7.7432543731728956,1,266.14499803457875,1.1320420107804239,1,45,268.2971478574909,40,267.1635030844336,1.125,0.0058462721644882976,0.9941537278355117,5.136087629186268,1,259.4404285621131,1.1824735161062563,0,53,261.62647816991375,40,260.4423924100847,1.325,0.973262700594371,0.026737299405628974,-3.5945944640589325
54,1,256.88879745423037,0.7819860108866123,1,16,258.690416809055,10,257.9070879859937,1.6,3.7006773453751585e-05,0.9999629932265462,10.204372588298812,0,258.9069394430844,0.7321885783894686,0,50,260.6422126573598,7,259.9086741557112,7.142857142857143,0.9918146959459434,0.008185304054056557,-4.797195933545009,1,270.7982340775634,2.0326865527167683,1,53,273.85087792419654,55,271.8165862388414,0.9636363636363636,0.010313737512495535,0.9896862624875045,4.5639112406519375,0,264.1271515513072,1.4323705039714696,0,60,266.5627670858812,61,265.1289261650818,0.9836065573770492,0.7428248712381441,0.2571751287618559,-1.0607030243115787
55,1,261.19157295492187,1.265690339379944,1,45,263.46048620151123,40,262.1934439635661,1.125,0.00690174315547154,0.9930982568445285,4.969055597715882,1,263.1430096928234,0.6651897971605649,1,43,264.811521162439,97,264.1449778864626,0.44329896907216493,0.02264907486599521,0.9773509251340048,3.764726767646037,1,276.3514529353997,0.7991573350009276,1,15,278.15415752265835,42,277.3531912035687,0.35714285714285715,2.766000761766918e-10,0.9999999997233999,22.008448421017526,1,269.0637193802977,0.9156382900982862,1,15,270.99945995167946,19,270.0821853191301,0.7894736842105263,0.0006675763432865134,0.9993324236567135,7.311189002993436
56,0,265.96151316244504,0.7987196074682288,1,55,267.77993129889364,60,266.9799727803038,0.9166666666666666,0.0017776336608321675,0.9982223663391678,6.3306929876200115,1,267.31282782652124,0.6652988339774311,1,17,268.9974479062803,82,268.3308307539264,0.2073170731707317,0.00036713968561474797,0.9996328603143853,7.909400960473154,0,280.65470527466096,1.4325542072911048,0,43,283.1072708992142,7,281.67301318910904,6.142857142857143,0.8924313571661593,0.10756864283384074,-2.1158204181795206,1,273.49988088912505,0.7786370792455273,1,43,275.28540151030757,97,274.50512690344476,0.44329896907216493,1.3000276610775074e-07,0.9999998699972339,15.855709978962494
57,0,270.28114156810625,0.9658691044460284,0,86,272.26640816511645,59,271.29922074227943,1.4576271186440677,0.9999594274518903,4.057254810969264e-05,-10.11237830161491,0,271.49859931140963,1.8161228323442629,1,54,274.3178644585423,80,272.5004794064589,0.675,0.45942900037198187,0.5405709996280181,0.16264157272758353,1,285.6079581077356,0.9323458126600599,1,3,287.56039395477274,18,286.62631461469573,0.16666666666666666,1.7132051333135223e-10,0.9999999998286795,22.487484966683983,1,277.7862945455854,0.681943936899188,1,17,279.488218689934,82,278.80464986735024,0.2073170731707317,8.83173534305115e-11,0.9999999999116826,23.15008449944757
58,1,274.76745171860966,0.648594471917022,1,10,276.4358450649888,44,275.78599429926544,0.22727272727272727,2.346522975926746e-11,0.9999999999765348,24.47550137513334,1,276.8189751723985,0.6320836897066329,1,16,278.4706033173279,10,277.83718669197697,1.6,0.08215137789970572,0.9178486221002943,2.4134688600348695,1,290.06086466989655,0.8654726607928751,1,14,291.9463831182511,57,291.07923223855323,0.24561403508771928,3.6137759451548845e-12,0.9999999999963862,26.346267922036773,0,281.98901177478547,1.1491821250674548,0,41,284.15817173694086,22,283.00725608442735,1.8636363636363635,0.9595063596877491,0.04049364031225085,-3.1652740110977184
59,1,278.93664684118994,0.6983373860130087,1,52,280.63852950414,68,279.93888960218464,0.7647058823529411,2.7146521856868944e-05,0.9999728534781431,10.514234481303198,0,280.97162830295565,0.7320985044934787,1,24,282.7231910653063,90,281.9899287112494,0.26666666666666666,0.0008185106759351912,0.9991814893240648,7.107205272106605,1,294.44703003055474,0.8821861092583276,1,43,296.3327262563398,93,295.4488880021963,0.46236559139784944,2.9941573664871157e-09,0.9999999970058426,19.62660298871914,1,286.65865351376124,0.8320588008791674,1,3,288.4949058866041,18,287.6605786457658,0.16666666666666666,4.792422815036446e-06,0.999995207577185,12.24846967508738
60,0,290.1456328975182,1.1487499283975922,1,53,292.3130245668581,57,291.162963431183,0.9298245614035088,0.0016815306618406245,0.9983184693381594,6.386367846114283,0,292.2304291744658,0.6481843986402964,0,96,293.8974315112573,89,293.2479694854992,1.0786516853932584,0.9995645030550895,0.00043549694491051296,-7.738587185025931,0,305.85612867925374,1.0152536982641323,0,62,307.8906787344604,17,306.87349713877484,3.6470588235294117,0.9999524282105107,4.757178948935914e-05,-9.953223057283456,0,298.0178931004484,1.6824440840719035,1,54,300.7196805537096,80,299.03505454803235,0.675,0.001387542110559803,0.9986124578894402,6.578832857212716
61,1,294.8140977499279,0.5651785379159264,1,40,296.38240003476676,93,295.8159205611446,0.43010752688172044,1.4565237904662354e-11,0.9999999999854348,24.952383391639255,1,296.3985295831517,1.3823186522058677,1,37,298.7833288230613,54,297.4003753079014,0.6851851851851852,0.1693136249839151,0.8306863750160849,1.5904995526535846,0,310.3910842645273,0.9454357620998053,0,71,312.34347349437303,69,311.3964657847537,1.0289855072463767,0.8476979226101553,0.15230207738984472,-1.7166584490669587,1,303.21984312128916,0.9985485460783821,0,54,305.2225761529262,31,304.2219883022335,1.7419354838709677,0.9983653646253698,0.0016346353746301558,-6.414699539113762
62,1,298.88347874868487,1.048905779942288,1,53,300.9354908928508,55,299.88526086861384,0.9636363636363636,0.003235396428974857,0.9967646035710251,5.730363173163959,1,301.2850771652884,0.5821365291049005,1,10,302.88713977849693,44,302.3035932768544,0.22727272727272727,0.0017679412972844144,0.9982320587027156,6.33617001226143,1,314.8445059861551,0.9156963640562026,0,75,316.77965949696954,70,315.8623824940587,1.0714285714285714,0.9745700637790243,0.025429936220975616,-3.646069342111751,1,307.72295758427936,0.7483501267124666,0,46,309.4750623702421,36,308.7250446912658,1.2777777777777777,0.8348676153912689,0.16513238460873117,-1.620525684672602
63,1,303.4366379523126,0.6154200189339463,1,4,305.0714131922723,22,304.45484236080665,0.18181818181818182,1.411670780271379e-09,0.9999999985883292,20.37849188209738,0,305.387862937554,0.6152916241262574,0,71,307.0063375677273,64,306.38974935359147,1.109375,0.9899572790220527,0.010042720977947336,-4.590813698408795,0,319.28029376732593,1.3159495981235523,1,55,321.59984276574687,60,320.28212645505846,0.9166666666666666,0.008689686628225002,0.991310313371775,4.736890739437132,0,311.97569940601534,2.4169844602729427,1,38,315.4122966670693,43,312.9937920122611,0.8837209302325582,0.024033104555592044,0.975966895444408,3.7039964308431137
64,0,307.5727332884271,1.0822568251751363,1,14,309.674705630212,7,308.5911229804915,2.0,3.5002801731520705e-05,0.9999649971982685,10.260047446792285,1,309.5072598375118,1.1963310689752689,1,14,311.70942319126334,8,310.5117757792177,1.75,0.06505280427553417,0.9349471957244658,2.6652907389642397,0,324.100131752828,1.6994135320273926,1,58,326.80334537611634,58,325.10198063806456,1.0,0.06948801538032856,0.9305119846196714,2.594580658632227,0,317.9131750850793,1.716182684074738,1,55,320.64925856936316,60,318.9312783579662,0.9166666666666666,0.3011532202787047,0.6988467797212953,0.8418123462478828
65,1,312.175736146688,0.6485770892322762,1,42,313.8274203902838,67,313.1775182666315,0.6268656716417911,2.0822602408987478e-07,0.9999997917739759,15.384641484722199,1,314.2107053615764,1.2824756889312994,0,46,316.5128847152955,36,315.2291258683981,1.2777777777777777,0.842981698005755,0.157018301994245,-1.6805828754495415,0,329.3037362889154,2.0625420986907557,1,59,332.37367827421986,65,330.3093911913311,0.9076923076923077,0.021483438978957436,0.9785165610210426,3.818755353332422,0,323.1497328400292,0.8653553276963066,0,96,325.0190684067784,89,324.15174132988614,1.0786516853932584,0.999903241129037,9.675887096307397e-05,-9.243191777164391
66,1,316.328627894065,1.0488919528143015,1,33,318.3970409934991,25,317.34684454943636,1.32,0.0018566710461902503,0.9981433289538097,6.287111758107699,0,319.01373508397955,0.6320556403807132,1,78,320.64859052130487,34,320.0155883148982,2.2941176470588234,0.9997756060948931,0.00022439390510688558,-8.401883126442165,0,334.87406128580915,1.0826368738053134,0,51,336.9601924736926,7,335.8758473563503,7.285714285714286,0.9984689663212137,0.0015310336787862405,-6.48027995773916,0,327.5192914186773,1.5824340100080008,0,45,330.10571475414326,42,328.5215408957156,1.0714285714285714,0.4003379937784358,0.5996620062215642,0.40405699877040063
67,1,320.8982097813132,1.8827960833586985,1,46,323.8007130850019,40,321.91660460917046,1.15,0.011552716996977908,0.9884472830030221,4.449214663755879,1,323.1500935306831,1.2492929396685213,1,42,325.4187286543747,67,324.1680877667386,0.6268656716417911,0.16876687610001384,0.8312331238999862,1.594391958417848,1,339.4603787449305,1.8162374000239652,0,62,342.2801922366634,43,340.4622837288189,1.441860465116279,0.9670714482089768,0.032928551791023115,-3.379932262172904,1,332.6061842840718,0.8485664225881919,0,41,334.458280181163,7,333.6080252680986,5.857142857142857,0.9992101568088642,0.0007898431911358734,-7.142885969156854
68,0,326.3017187126534,0.5651923650584649,1,9,327.87017783668125,7,327.30365925202204,1.2857142857142858,2.6019361458740065e-06,0.9999973980638541,12.859252116637546,0,327.9196848993888,0.9987034099613084,0,60,329.93818402334,40,328.93819587517646,1.5,0.9857289007402116,0.014271099259788403,-4.235144906814753,1,344.7807064084773,0.6487066692207009,1,19,346.4495145688561,37,345.7991790633532,0.5135135135135135,8.681039775915167e-09,0.9999999913189602,18.562124516915365,0,336.95904521668854,2.0331452184764203,1,12,340.0120596304914,3,337.97732547688065,4.0,0.012505324206018797,0.9874946757939812,4.369016615055145
69,1,330.3712458839582,0.898910224364954,0,58,332.29002411846886,6,331.3896379463986,9.666666666666666,0.9999976021987389,2.3978012611181873e-06,-12.94095598392083,0,332.439533354016,0.8488050393934827,0,86,334.30801361380145,59,333.4579909965687,1.4576271186440677,0.9996851488117013,0.0003148511882986836,-8.063095548098305,0,348.950266567379,1.0989489403436892,1,45,351.0692506286432,92,349.96866021005553,0.4891304347826087,1.1479887596088645e-08,0.9999999885201124,18.282669225904513,0,342.5128258511977,1.1823431459924905,1,45,344.69858943487634,92,343.5146534031519,0.4891304347826087,1.16502886948755e-06,0.9999988349711305,13.662763525548089
70,0,334.7909013512981,1.582590849197004,1,54,337.37673920643283,80,335.7928059401311,0.675,1.499195165344247e-06,0.9999985008048347,13.410580651094905,0,336.8091669942369,1.065684018394677,0,43,338.89424652988964,7,337.8272485387715,6.142857142857143,0.9664811277814697,0.033518872218530345,-3.3615531420904805,1,353.5698588249652,0.8653833770222263,1,6,355.4388795281411,8,354.5718147717271,0.75,1.1030255486765839e-08,0.9999999889697445,18.32262383002092,0,347.19913639676815,0.8486770396557404,1,14,349.0681709270575,57,348.2176849033276,0.24561403508771928,1.8209108776368055e-08,0.9999999817908912,17.82134386763598
71,1,339.87763224171067,0.5655285619141068,1,24,341.46278190067096,69,340.8959429215902,0.34782608695652173,9.33009225434489e-12,0.9999999999906699,25.397776213183352,1,341.39538489801635,0.7988318047719076,1,14,343.21399108348123,57,342.41386584915745,0.24561403508771928,0.0014350002203800116,0.99856499977962,6.54515424537639,1,357.93970303268,1.1977327452186728,1,42,360.15869637788273,67,358.9592842285783,0.6268656716417911,1.2418965509297664e-06,0.9999987581034491,13.598869628351745,1,351.5687095926696,0.9155948333936976,1,14,353.4880104928161,57,352.5704336386407,0.24561403508771928,1.8209108776368055e-08,0.9999999817908912,17.82134386763598
72,1,343.9636449113168,0.59883575537242,1,3,345.58207450453483,18,344.98188566540193,0.16666666666666666,3.1172227021869503e-09,0.9999999968827773,19.586323387990554,0,345.7148252546758,0.898792496198439,1,14,347.6168295963871,57,346.71673497928714,0.24561403508771928,0.0014350002203800116,0.99856499977962,6.54515424537639,1,362.65940333945036,1.0823674422426848,1,37,364.7622614078864,54,363.6777914512786,0.6851851851851852,2.171671056427904e-06,0.9999978283289436,13.040011443005277,1,355.98845750428154,0.8155420927505475,0,98,357.82395728600386,73,357.0068270482443,1.3424657534246576,0.9999994158185792,5.841814207559859e-07,-14.3530536661995
73,1,348.08292013249593,0.7154597225598991,1,28,349.8180633717275,82,349.10134498499974,0.34146341463414637,1.049826892085548e-12,0.9999999999989502,27.582395830030173,0,350.11856174111017,0.7987555580184562,0,58,351.93677010020474,58,351.13660535980307,1.0,0.9168048261216607,0.08319517387833927,-2.3997052701661534,0,367.2624942963157,1.1658465859945863,0,50,369.43197978868557,7,368.2642108361324,7.142857142857143,0.9973610257467956,0.0026389742532043235,-5.934722515294208,1,360.3250036049285,2.133073119854089,1,46,363.477837673403,40,361.34315349500685,1.15,0.6364130108645589,0.36358698913544113,-0.5598291625234993
74,1,352.31921793734364,1.2157459442096297,0,72,354.53801296194433,51,353.32099571160506,1.411764705882353,0.9957586526346424,0.0042413473653576785,-5.458623917976652,0,354.43756555543223,1.348936397160287,0,53,356.8063122838357,57,355.45602438316564,0.9298245614035088,0.8105252956516494,0.1894747043483506,-1.4534270212988807,1,371.9323754422221,1.048930668781395,1,16,374.0012428617483,10,372.95060552966606,1.6,1.5570949021270764e-06,0.9999984429050979,13.372687157961732,1,365.9785556966817,1.4825586517399643,0,32,368.4812000371312,16,366.9969173394202,2.0,0.701505596258198,0.29849440374180203,-0.8544776923472421
75,0,357.0389573551365,1.3325093678868143,0,80,359.3747010870138,60,358.0408516723837,1.3333333333333333,0.9987272862989321,0.0012727137010679003,-6.665330361379766,1,359.3073732200137,0.8490001995087368,0,88,361.1760474547191,96,360.3256558505673,0.9166666666666666,0.9961027776103479,0.003897222389652106,-5.54358635101903,0,376.5018561938632,1.4328801325900713,1,45,378.93848624496604,42,377.50383663439425,1.0714285714285714,0.0035342087017861123,0.9964657912982139,5.641725382656316,1,370.9818216655258,0.9822036894765915,0,94,372.98412566097977,46,372.00020227119967,2.0434782608695654,0.9999999974280555,2.5719445435725232e-09,-19.778603589828545
76,0,361.875456246009,0.6986731878132559,1,6,363.57728952633624,26,362.87733831636433,0.23076923076923078,1.0751353141102982e-09,0.9999999989248647,20.65081930862209,1,363.67707283541677,0.7323778125864919,1,4,365.4290456710296,22,364.6954277621262,0.18181818181818182,0.002944869847117837,0.9970551301528822,5.824741442874181,0,381.4386768618715,1.2323784051841358,0,77,383.69125196790264,72,382.45707603541086,1.0694444444444444,0.98567819143575,0.014321808564250067,-4.231546473531623,0,375.48484170895244,1.265584067979944,0,86,377.7540251772298,59,376.48672338423785,1.4576271186440677,0.9999974078924394,2.592107560574248e-06,-12.863036691089182
77,0,366.0782927836117,1.4826179108786164,1,60,368.58093554382503,61,367.09690805549326,0.9836065573770492,0.016965027888815043,0.983034972111185,4.059490654295247,1,367.92964162045973,0.8487931875715731,0,58,369.7817809742701,58,368.9316983077588,1.0,0.9168048261216607,0.08319517387833927,-2.3997052701661534,0,386.191870040755,1.4493533839995507,1,22,388.6612462987687,31,387.2101720292849,0.7096774193548387,2.0330894501263685e-07,0.999999796691055,15.408538914892684,1,380.25473845977103,1.1823127262905473,1,15,382.44092357347836,42,381.25655376483337,0.35714285714285715,1.499774934021758e-06,0.999998500225066,13.410194005323271
78,0,371.0817069003242,1.2657413022534456,1,12,373.3506280481379,3,372.08359410647245,4.0,4.595876720159264e-05,0.9999540412327984,9.98771996881011,0,372.2826985033171,1.365792067575967,1,12,374.65167476213537,3,373.2846015118994,4.0,0.064189704149207,0.935810295850793,2.6795699542357276,1,391.16180550755234,1.6494813837343827,0,74,393.83162660419475,60,392.180200730465,1.2333333333333334,0.9964196240419252,0.0035803759580747704,-5.628700667017011,1,384.94099488198117,1.3159310302580707,0,56,387.2608970648871,46,385.9428935448959,1.2173913043478262,0.9645713633474452,0.03542863665255481,-3.3041633814933213
79,0,375.85163723133155,1.3490908659878187,1,45,378.22054356435547,42,376.8701869230863,1.0714285714285714,0.0035933867773890737,0.9964066132226109,5.625060270666249,1,377.152725426713,0.7484970893856371,0,94,378.9208503291884,46,378.1711613409134,2.0434782608695654,0.9999781913421585,2.180865784155682e-05,-10.733181709420979,0,396.3319041345094,1.3492445446900092,1,35,398.6846821043291,62,397.3336799334793,0.5645161290322581,9.650438026476138e-08,0.9999999034956197,16.153677341782565,0,389.7610173609428,1.3658631785510806,1,45,392.13025040937646,60,390.76279276484274,0.75,0.005612161624152456,0.9943878383758475,5.177191348441356
80,1,387.74407319689635,1.3485010400036117,0,54,390.11167938433937,31,388.76184224820463,1.7419354838709677,0.9347183236582446,0.06528167634175543,-2.6615338362008423,1,388.4280189076235,1.465685993709485,0,53,390.9123727163096,40,389.4453174413502,1.325,0.9426489134232339,0.057351086576766096,-2.799502115360224,1,408.2078945029207,0.9820373688125983,1,4,410.2089512909588,22,409.2252337279351,0.18181818181818182,1.0753509194216804e-10,0.9999999998924649,22.953203884850822,0,401.6534118451091,1.3820930724177742,0,78,404.0547076450166,34,402.6710544769303,2.2941176470588234,0.9999998901430599,1.0985694004707533e-07,-16.02408675276629
81,1,392.61257162949187,1.8493261247785995,0,62,395.4652715747652,43,393.61460816867475,1.441860465116279,0.9470615049942297,0.05293849500577032,-2.884233270178356,1,393.41341982534504,0.7323157880309736,1,40,395.14879259497684,93,394.4152533032029,0.43010752688172044,0.016901969321533095,0.9830980306784669,4.063278698154132,0,412.7095914872334,0.7323951952712378,1,15,414.4454683546355,42,413.7112938048522,0.35714285714285715,2.766000761766918e-10,0.9999999997233999,22.008448421017526,1,406.5555335199315,1.2658361168723786,1,42,408.8247817782103,39,407.55737884961127,1.0769230769230769,0.2871741514237436,0.7128258485762564,0.9091483078166186
82,1,397.96649922666256,0.9986848420958268,0,66,399.9682817416615,59,398.9682928033726,1.11864406779661,0.42936549619931474,0.5706345038006853,0.2844403775849003,1,397.64958449464757,0.7821677389292745,0,62,399.4348850669048,43,398.6514325897733,1.441860465116279,0.9879644970011106,0.012035502998889464,-4.407785897858162,1,416.94577590958215,1.4159383388905553,1,33,419.3820263071102,25,417.96405024385604,1.32,0.00037414467560359377,0.9996258553243964,7.890493787500526,0,411.3258873562736,0.8657606602209853,1,15,413.2112754345144,42,412.3437334444752,0.35714285714285715,1.499774934021758e-06,0.999998500225066,13.410194005323271
83,0,402.46930435692775,0.8160315732675372,0,78,404.28822817139735,34,403.4708443045092,2.2941176470588234,0.9999992869469069,7.130530931429355e-07,-14.153709241815012,0,401.9358428921696,1.432659293510369,0,40,404.38823350472376,15,402.9542934236233,2.6666666666666665,0.8921440006286802,0.1078559993713198,-2.1128305569508505,0,421.88217899815936,0.8489930884097703,1,7,423.73470077096135,54,422.8839674390765,0.12962962962962962,1.694200335577989e-13,0.9999999999998306,29.40639535783253,0,415.7115450636047,0.8822576153033879,0,87,417.5974336840736,76,416.71332757860364,1.144736842105263,0.9998475641672973,0.0001524358327027841,-8.788614372174838
84,1,406.7887937011401,0.9487961505219573,1,43,408.74094194381905,93,407.7908590797888,0.46236559139784944,6.928013718265902e-11,0.9999999999307199,23.392862871487836,0,406.889156959689,0.7819382085144753,1,14,408.67424182865943,7,407.89103903004434,2.0,0.07003773439725669,0.9299622656027433,2.5861098510782785,1,426.2353006710182,0.9324271952064009,0,82,428.1872660004592,40,427.2538029554562,2.05,0.9999997088822558,2.911177441919545e-07,-15.049537741277074,0,420.0978403993213,0.8655903889593901,1,14,421.9835508473043,7,421.11625379504403,2.0,0.010326748828458188,0.9896732511715418,4.562637336765539
85,1,411.2422063363774,1.2654856978188036,1,46,413.51061746050254,36,412.24396988845547,1.2777777777777777,0.04159839497522799,0.958401605024772,3.1372053178550896,1,411.1754833076848,0.8957532923523104,0,75,413.09417304855015,70,412.1971666228783,1.0714285714285714,0.9928686348367394,0.007131365163260665,-4.936095680495615,1,430.68809345562477,0.8821884796343511,0,41,432.5736885458027,7,431.68989177305775,5.857142857142857,0.7358881663030759,0.2641118336969242,-1.0247055332896124,0,424.4842443767993,0.9821827512350865,1,6,426.4701738860749,26,425.48600358319527,0.23076923076923078,2.109096022162582e-06,0.9999978909039778,13.06924901869385
86,1,416.01181587789324,0.5987097309407545,1,15,417.6311106545909,42,417.03017040953273,0.35714285714285715,6.08339378871392e-10,0.9999999993916606,21.220288200150325,1,415.5949823309056,0.9653033771755872,0,54,417.5635291584622,78,416.5968628210103,0.6923076923076923,0.49893005239424015,0.5010699476057598,0.004279796955660292,1,435.0744863713917,1.132333960820688,1,42,437.2102573624579,39,436.0763182689989,1.0769230769230769,0.0014715871734817254,0.9985284128265183,6.519941079786099,0,428.97040479919815,0.6485454843495972,1,7,430.62259393067507,54,429.9723567953333,0.12962962962962962,1.9399826189925307e-09,0.9999999980600174,20.060586821253526
87,0,420.1312281852297,1.4658317712019198,1,41,422.61686080619984,22,421.1497723461216,1.8636363636363635,0.24151759442043996,0.75848240557956,1.1443772770022242,0,420.0645628354396,0.8821521340141771,0,78,421.9498687410087,65,421.06645438725536,1.2,0.9973938601672139,0.002606139832786134,-5.947275601977363,1,439.7108066947112,0.7988333850225899,1,15,441.51322525783326,56,440.71266111079603,0.26785714285714285,8.029354958694057e-12,0.9999999999919706,25.547916920118148,1,433.1232056825538,0.6318648259475594,1,12,434.7760897262342,9,434.1416969052807,1.3333333333333333,0.002573115570643769,0.9974268844293562,5.960061398278803
88,0,425.1177538414777,0.6487133852497209,1,28,426.76955936876766,41,426.11957388726296,0.6829268292682927,7.269889650274308e-07,0.999999273011035,14.134353811318187,0,424.45092177596234,0.8150624887639424,0,56,426.2694197147357,59,425.45304285819293,0.9491525423728814,0.871057421983869,0.12894257801613093,-1.9103407275789,0,444.01370466429216,0.9991312609636225,0,62,446.0162298938667,17,445.01543226582,3.6470588235294117,0.9999524282105107,4.757178948935914e-05,-9.953223057283456,0,437.27603619547153,1.3955164533108473,0,78,439.6952898858435,65,438.2981090407702,1.2,0.9995919402095924,0.0004080597904075707,-7.803688706110744
89,1,429.27056144086237,0.8489599032909609,0,41,431.122540004857,7,430.2722949683084,5.857142857142857,0.9775916364253294,0.022408363574670583,-3.7756577701257896,1,428.77046642871574,1.8494209394120844,1,55,431.6395617983944,95,429.7888363677339,0.5789473684210527,0.24135536710941918,0.7586446328905808,1.1452630636663572,0,448.5171173982817,1.1324753926455742,0,71,450.6692842088232,64,449.5352799303073,1.109375,0.9516969906430034,0.048303009356996586,-2.9807528327420627,0,442.1959778844757,0.8320884304412175,0,87,444.0316388510837,85,443.19778449820296,1.0235294117647058,0.9983445857234629,0.001655414276537125,-6.402047197339357
90,1,433.62359264475526,0.7821886771562276,0,94,435.42541822139174,46,434.6418061396398,2.0434782608695654,0.999999991081483,8.918517030241821e-09,-18.53513614747245,0,434.1407641663973,1.165692907277844,0,59,436.30956857369165,65,435.14254589127086,0.9076923076923077,0.886001250434098,0.11399874956590196,-2.050530882315072,0,453.16991136808065,1.5662041161413072,1,56,455.7396481192118,59,454.1717088953883,0.9491525423728814,0.019105017222847964,0.980894982777152,3.9385144202571563,1,446.53231420776865,1.2491787670587655,1,50,448.8016371325648,62,447.55060157905973,0.8064516129032258,0.02819939533694249,0.9718006046630575,3.5398501084191785
91,1,437.9263254788675,1.0156542900658678,1,26,439.9450742813351,84,438.92812616666197,0.30952380952380953,1.9251267247000214e-13,0.9999999999998075,29.27861441233642,0,438.8103379548993,0.9822305536217755,0,53,440.7958360576158,15,439.8122172598232,3.533333333333333,0.9916658470092207,0.008334152990779364,-4.779024312509259,0,458.24021285884373,1.5162767085857922,1,54,460.77618533099303,80,459.2581995887449,0.675,3.235124448541793e-05,0.9999676487555146,10.338825716579358,0,451.3020169836673,0.7819994429592043,0,80,453.087640715763,60,452.30388048615714,1.3333333333333333,0.9999544491243789,4.555087562104897e-05,-9.996635159235819
92,0,442.4460814892227,1.1990060266543878,1,38,444.6648054028483,43,443.4645102923241,0.8837209302325582,6.827155027855358e-05,0.9999317284497214,9.591949144861314,1,443.29701274663967,1.049057088283007,0,56,445.365641944416,46,444.3152937969571,1.2173913043478262,0.9497740491080023,0.05022595089199771,-2.9396922700963977,0,463.2767915520235,1.299535605852725,1,53,465.5962196617911,57,464.2949047014263,0.9298245614035088,0.0062459965125106764,0.9937540034874893,5.069548994121991,0,455.58816357892647,0.8990998536319239,0,60,457.50758734303236,40,456.60669233245426,1.5,0.998680734190966,0.0013192658090339867,-6.629359765594369
93,1,447.16571779611695,1.2989441996178357,1,88,449.46801764341944,96,448.1677867302933,0.9166666666666666,0.272093612617604,0.727906387382396,0.9840262800475478,1,447.8662691036734,0.7320661095000105,0,87,449.6015514043538,89,448.8682135936542,0.9775280898876404,0.9972482447197392,0.002751755280260821,-5.892760738870109,0,468.0965430191718,0.9821057143708458,0,53,470.0822374671843,15,469.0985088424495,3.533333333333333,0.9961231341760102,0.0038768658239898214,-5.548843828748904,0,460.0078644782916,1.048686521113268,0,71,462.06003069622966,69,461.00975286962057,1.0289855072463767,0.9760659233168592,0.0239340766831408,-3.708226882426203
94,0,451.96913507330464,1.4325668492529076,0,71,454.40483633612166,64,452.97100726714416,1.109375,0.6625665298510932,0.3374334701489068,-0.6747526098390465,1,452.1026937230781,1.399046717924648,0,53,454.5220050923381,55,453.12166454980616,0.9636363636363636,0.8336595892748121,0.16634041072518788,-1.6117887970708038,0,472.5831411691033,0.9990585697523784,0,86,474.6021898228355,59,473.60117491126584,1.4576271186440677,0.9999959959846271,4.004015372972793e-06,-12.428208853091487,1,464.56126940983813,1.0990271624177694,1,37,466.68050156936806,54,465.5793007816246,0.6851851851851852,0.000862812675801794,0.9991371873241982,7.054449766972575
95,0,456.9060663583805,0.8320884304412175,0,62,458.75780195988773,16,457.9242782730289,3.875,0.9999920338107895,7.966189210480703e-06,-11.74029635500878,1,457.0227152143925,0.6821825537190307,1,15,458.72461012423446,42,458.04110293116537,0.35714285714285715,0.005752514452751489,0.9942474855472485,5.152349099736267,0,477.10287505605083,1.782886354791117,1,40,479.90551169282116,15,478.1210095387505,2.6666666666666665,0.17604113430244128,0.8239588656975587,1.5434029230355115,1,469.1805791988445,0.5790878437837819,1,4,470.76629853570194,22,470.1855771148985,0.18181818181818182,2.559673474400448e-06,0.9999974403265256,12.875628296993451
96,0,461.2587941554666,0.8154919200169388,1,24,463.0937542839383,90,462.27700409480894,0.26666666666666666,9.547918011776346e-15,0.9999999999999905,32.282453273423585,0,461.2254755052418,0.7152005625684978,1,6,462.96060215189937,26,462.24408129564836,0.23076923076923078,0.003232436757515167,0.9967675632424848,5.731281339716686,0,482.4095897094521,1.7828349968622206,0,78,485.20902042662783,65,483.42457713664044,1.2,0.998567407691305,0.00143259230869502,-6.546836053121723,0,473.26675265826634,1.2825677381333662,0,60,475.55291584608494,70,474.2686983334279,0.8571428571428571,0.20984430613054883,0.7901556938694512,1.3258641505239022
97,1,465.5953272191109,0.73227430661791,0,97,467.34670074725,61,466.6131345913309,1.5901639344262295,0.9999997431116183,2.5688838163082093e-07,-15.174623902224404,1,465.46176224837836,0.6492202484514564,1,6,467.13043806333735,8,466.4799864099041,0.75,0.013307569550722542,0.9866924304492775,4.306025357769403,0,487.70965864759637,1.1295981637522345,1,14,489.8456445518095,57,488.71426940390666,0.24561403508771928,3.6137759451548845e-12,0.9999999999963862,26.346267922036773,1,478.0533438946295,0.8654363151872531,1,43,479.9389346391399,93,479.07169763614365,0.46236559139784944,3.7549757192500977e-07,0.9999996245024281,14.795013456510466
98,0,469.84820099121134,2.3664569551474415,0,68,473.233902550317,63,470.86612885702925,1.0793650793650793,0.3642956448978749,0.6357043551021251,0.5567678555657241,1,469.6311477903364,0.6320034923410276,0,69,471.2663240171387,61,470.63309504574863,1.1311475409836065,0.9880873789949521,0.011912621005047815,-4.418172707365386,1,492.3461547730258,0.8821710969496053,1,10,494.2483372872375,44,493.3645251071139,0.22727272727272727,1.0904166458658437e-11,0.9999999999890958,25.24187615580552,1,482.4396329093579,0.7318010236049304,0,82,484.17498237040127,40,483.441442288502,2.05,0.9999999047912194,9.520878065524235e-08,-16.167193570420025
99,1,475.7350859553844,0.7319357393862447,1,17,477.4867024460109,82,476.7535139683605,0.2073170731707317,3.552713678800501e-15,0.9999999999999964,33.27106466687737,1,473.7673873236781,0.831993220752338,1,28,475.6190514191694,82,474.7857623985037,0.34146341463414637,0.003493363201107602,0.9965066367988924,5.653390859616327,1,496.7489446934487,1.4159573018114315,0,54,499.1683994698251,31,497.7507884428924,1.7419354838709677,0.8858767920158921,0.11412320798410797,-2.04929924343352,1,486.6756597023923,1.6159371537069092,0,33,489.295056009767,25,487.67748369878973,1.32,0.25001138262259937,0.7499886173774006,1.0985515822688918
