,self_acceptUp,self_cue_times,self_decision_times,self_decisions,self_punishment_values,self_response_times,self_reward_values,self_trial_times,self_punishment_reward_ratio,self_prob_reject,self_prob_accept,self_SV,harm_other_acceptUp,harm_other_cue_times,harm_other_decision_times,harm_other_decisions,harm_other_punishment_values,harm_other_response_times,harm_other_reward_values,harm_other_trial_times,harm_other_punishment_reward_ratio,harm_other_prob_reject,harm_other_prob_accept,harm_other_SV,harm_self_acceptUp,harm_self_cue_times,harm_self_decision_times,harm_self_decisions,harm_self_punishment_values,harm_self_response_times,harm_self_reward_values,harm_self_trial_times,harm_self_punishment_reward_ratio,harm_self_prob_reject,harm_self_prob_accept,harm_self_SV,other_acceptUp,other_cue_times,other_decision_times,other_decisions,other_punishment_values,other_response_times,other_reward_values,other_trial_times,other_punishment_reward_ratio,other_prob_reject,other_prob_accept,other_SV
0,1,0.008644338848853295,1.9334783735480414,0,54,2.9694830858404657,31,1.0339112818478498,1.7419354838709677,0.9999553344753523,4.4665524647639406e-05,-10.01626394807631,0,0.008357919322065754,4.112946873720944,1,87,5.1542051127268,76,1.0394638700531686,1.144736842105263,0.7400517682704157,0.2599482317295843,-1.046237638415129,0,0.00671367370750886,2.148171339716555,0,41,3.186514815593,22,1.0367146376574965,1.8636363636363635,0.9999670278567022,3.297214329775193e-05,-10.319814522792175,1,0.007320092981444759,2.737893342899042,0,25,3.769879885526734,37,1.030569062266295,0.6756756756756757,0.14194302681087545,0.8580569731891245,1.7992447421523503
1,0,5.470046048358654,1.765715148076879,0,71,8.256753969972124,64,6.48872060150461,1.109375,0.9997662107474872,0.00023378925251279456,-8.360856662119428,0,7.655632074562277,5.217852667375723,1,53,13.893339738595728,57,8.673864949044969,0.9298245614035088,0.39788150250710164,0.6021184974928984,0.41430003706849927,0,5.68849762884156,0.9149140425370206,0,28,7.623354766732064,18,6.706363491268348,1.5555555555555556,0.9980608871597038,0.0019391128402962603,-6.243583713962655,1,6.270487489985044,0.8986785985748611,0,54,8.17251620936986,31,7.272495982225337,1.7419354838709677,0.9999997957630772,2.0423692278852977e-07,-15.40398492653423
2,0,10.757177870871601,3.399543783076524,1,9,15.177917489052788,7,11.776259337276542,1.2857142857142858,0.6379859161385477,0.3620140838614523,-0.566633091319599,1,16.39396314551061,4.617755561279523,1,15,22.015645617267637,19,17.39577529222686,0.7894736842105263,0.44140049472803133,0.5585995052719687,0.2354801532159628,0,10.123652643039804,1.1644692033823958,0,59,12.29416905152084,65,11.127010270016399,0.9076923076923077,0.9955802043403192,0.0044197956596807335,-5.417232222970778,0,10.673578134456875,1.7991646031291566,0,53,13.47584871044046,57,11.675372503409108,0.9298245614035088,0.9877778521012424,0.012222147898757675,-4.392208118987859
3,0,17.679440450812308,2.2821599745896037,1,15,20.981681792251266,42,18.697454856331888,0.35714285714285715,0.005963114133541891,0.9940368858664581,5.116181464239075,0,24.51603198733278,4.084143340923788,1,60,29.620677040452733,70,25.53465952817021,0.8571428571428571,0.2505925888309435,0.7494074111690565,1.095454307455695,0,14.793348904020604,4.551513638310553,0,28,20.364926526477575,41,15.81173822282426,0.6829268292682927,0.44234871628673933,0.5576512837132607,0.23163530554867734,1,15.976931968843928,1.766028826841648,0,42,18.746177385736246,39,16.978819967352138,1.0769230769230769,0.9976636765946796,0.0023363234053203983,-6.056837722673083
4,0,23.481886829126324,1.5492827264924927,0,45,26.051205490405437,42,24.500259160289033,1.0714285714285714,0.9907769870640127,0.009223012935987217,-4.676787703892845,1,32.12241175513145,4.298766381221526,0,62,37.44289545252707,43,33.14186378914462,1.441860465116279,0.8837228900414776,0.11627710995852235,-2.0281673194670846,1,22.86531408172732,2.650264770161357,1,55,26.518927392452497,95,23.867117932153633,0.5789473684210527,0.009665972998716632,0.9903340270012834,4.629430507242982,1,21.247149236820405,0.8151961954004037,0,32,23.06571925671551,16,22.249209482105925,2.0,0.999964670319774,3.532968022606111e-05,-10.250751817389538
5,0,28.552070279845566,2.2330621368398624,0,40,31.805658622689407,15,29.57043510484118,2.6666666666666665,0.9998689010322261,0.00013109896777384832,-8.939426933242201,0,39.94442394514647,4.26725944315308,0,78,45.230914187919666,65,40.962051190478064,1.2,0.7866183717816264,0.21338162821837361,-1.304660971325341,1,29.019595836368808,1.3492896005614057,1,26,31.388849470538844,84,30.037878883651047,0.30952380952380953,1.9692772355028865e-06,0.9999980307227645,13.137841998785694,1,25.566752342318978,0.7652422595615462,0,53,27.351874487407713,40,26.585337611585146,1.325,0.9999871092493049,1.2890750695110053e-05,-11.258987613309637
6,1,34.3058403509408,2.5500147752968587,1,19,37.85930480252455,37,35.30756558414555,0.5135135135135135,0.061871779053404685,0.9381282209465953,2.718822471937917,1,47.73523457956776,3.217303927068542,1,6,51.96880397526593,8,48.749857777890156,0.75,0.5057355433316232,0.4942644566683768,-0.022943179694248753,0,33.889555050227955,1.6158304269979453,0,56,36.52528037508728,59,34.90800876404228,0.9491525423728814,0.9972840020585649,0.0027159979414350466,-5.905876134270148,0,29.852855819965498,3.050280651630146,0,56,33.906393357911384,59,30.854810583853123,0.9491525423728814,0.9940196750704333,0.005980324929566662,-5.113282097759785
7,1,40.35980455521599,1.8660362539960715,0,46,43.2302449538804,36,41.36162262785365,1.2777777777777777,0.998191009568534,0.0018089904314660128,-6.313175733357545,0,54.469536814193134,5.218411284218178,0,59,60.708229761398684,65,55.48780524420329,0.9076923076923077,0.34105282138640813,0.6589471786135919,0.6586060107271952,1,39.02596067084596,1.0825717866096056,0,41,41.11333482403188,7,40.028031582789936,5.857142857142857,0.9999995167752312,4.832247687615624e-07,-14.542783448560435,1,36.407337554695914,1.0654782692513436,0,46,38.47592416717089,40,37.40920184951938,1.15,0.9995435082663693,0.0004564917336307192,-7.691483370282888
8,0,45.73026194152135,3.7843237259664875,1,7,50.53383384981021,54,46.74848572959149,0.12962962962962962,3.207019616480178e-05,0.9999679298038352,10.34755135679787,1,63.2084581068973,8.85418441150864,1,98,73.06691115700846,73,64.21047845097996,1.3424657534246576,0.9246291939883933,0.07537080601160678,-2.5069727739158827,1,43.61287339229739,1.8491975512515637,0,54,46.482293347323775,78,44.63129510613726,0.6923076923076923,0.43940423710386456,0.5605957628961354,0.24358027770827245,1,40.97711843783236,0.948935941581567,0,82,42.92906079679142,40,41.97885710312494,2.05,0.9999999999950846,4.915399672683241e-12,-26.038648048706182
9,0,53.0349198736435,1.4657193357279539,0,28,55.504146959686295,18,54.0368864893735,1.5555555555555556,0.987472982240173,0.012527017759827015,-4.367261404059278,0,75.56686019408573,4.784626738072689,1,6,81.35492712697112,26,76.56870197040826,0.23076923076923078,0.12767232388853078,0.8723276761114692,1.921698116706723,1,48.982927420896885,1.5157878393774809,0,50,51.518796232062414,62,50.00139970259761,0.8064516129032258,0.9346365822374911,0.06536341776250887,-2.6601950311006237,0,45.430170919370994,1.1159951676086166,0,62,47.5656078493962,17,46.448290806288696,3.6470588235294117,0.9999999999878796,1.2120443900074312e-11,-25.13612751052728
10,0,58.00490942821966,2.7332671737149212,0,95,61.74167724114386,16,59.00681836498302,5.9375,0.9999999999973983,2.601643415985926e-12,-26.674877787507366,1,83.85562164494092,6.852806437288677,0,25,91.72927468304215,37,84.8741753092936,0.6756756756756757,0.24106984645855012,0.7589301535414499,1.146823038010338,0,54.01948087349638,1.115431019906282,0,60,56.13862349540841,70,55.02134437819723,0.8571428571428571,0.9879879137480914,0.012012086251908666,-4.409757134050672,1,50.0665686387606,1.983043568953235,1,37,53.06922384653899,54,51.08485129098153,0.6851851851851852,0.07240615388281013,0.9275938461171899,2.5503026769996984
11,0,64.24352375820331,2.1989600403278473,0,58,67.46240240007705,58,65.2617910030292,1.0,0.9956238161456531,0.004376183854346956,-5.427192413122555,0,94.22943349773152,7.103806337733317,0,38,102.35293364706479,43,95.24774735980452,0.8837209302325582,0.3889450374683687,0.6110549625316313,0.4517488683887508,0,58.64104877744285,2.0829376134815902,0,77,61.742441289923136,72,59.65788985055633,1.0694444444444444,0.9999762943952604,2.3705604739598195e-05,-10.649775344993209,1,55.57015816678859,1.1657638196434164,0,56,57.73883991005232,46,56.57189485677418,1.2173913043478262,0.9999684639841957,3.1536015804353314e-05,-10.364348769888204
12,0,69.96297839962199,1.665985054036355,0,53,72.64935257335105,15,70.9814562121826,3.533333333333333,0.999998117761482,1.8822385180775958e-06,-13.183046906099372,0,104.85371428842325,2.2830093566345795,0,86,108.15633646906747,59,105.87166271868625,1.4576271186440677,0.9415586782250607,0.05844132177493935,-2.77951346607761,0,64.24312988197153,1.0140985567613825,0,51,66.26245391608563,7,65.24629748440702,7.285714285714286,0.9999999911654499,8.834550107515536e-09,-18.544595645253555,0,60.240042872064805,1.6161109206041147,0,77,62.87585787586522,72,61.2584554994919,1.0694444444444444,0.9999741901399072,2.580986009285957e-05,-10.564728154711622
13,0,75.15080126356429,1.8989903020324164,1,7,78.06992705586003,54,76.1689721134046,0.12962962962962962,3.207019616480178e-05,0.9999679298038352,10.34755135679787,0,110.65691483898092,2.549385442460789,0,60,114.21020309317294,40,111.65921291123925,1.5,0.8952582586729568,0.1047417413270432,-2.1456145198792598,1,68.76396384081863,1.8320977129105813,0,37,71.61571546412597,54,69.78200748088284,0.6851851851851852,0.42802572177306086,0.5719742782269391,0.28991073085736135,1,65.3768463195288,4.051916996016189,0,62,70.44749080692054,43,66.39496581138474,1.441860465116279,0.9999995589001666,4.410998334694065e-07,-14.633994166270442
14,1,80.5699989570378,4.184661582489525,0,15,85.75790833943029,19,81.57164952363473,0.7894736842105263,0.4763465380867491,0.5236534619132509,0.09468452277461062,0,116.71096872219744,3.3506790315620947,0,58,121.0650263189915,58,117.71272951092976,1.0,0.4985783891199854,0.5014216108800146,0.0056864588430318675,0,74.11765087000413,1.7320132487798219,0,78,76.8692567946614,65,75.13581816429178,1.2,0.9999977859289009,2.2140710991388833e-06,-13.020675396687707,1,72.94832438650883,2.416548411616077,1,19,76.36813877085342,37,73.95034828614462,0.5135135135135135,0.007712997253279785,0.9922870027467202,4.857105521889576
15,1,88.25870004250851,2.2332466305213075,0,88,91.51235396554739,96,89.27690447256919,0.9166666666666666,0.9990168599282425,0.0009831400717575322,-6.923775330139266,0,123.5655533309208,2.6663789302685927,0,68,127.23560159162332,63,124.56757683549483,1.0793650793650793,0.6195017186564099,0.3804982813435901,-0.4874338148744061,0,79.36988810280445,3.90076491791433,1,54,84.27382654907524,80,80.37171842234602,0.675,0.30860635544552395,0.691393644554476,0.8066428011440406,0,78.8694839549753,1.082308675706372,0,28,80.97111271418225,18,79.88749401481937,1.5555555555555556,0.9993917532897729,0.0006082467102271104,-7.404321553134715
16,1,94.01255663205393,1.732788359278402,1,17,96.74901708719631,82,95.01437154420023,0.2073170731707317,1.8573554750878074e-06,0.9999981426445249,13.196355012168198,1,129.73651931929328,4.315727948066979,0,32,135.07436083013465,16,130.7568645871687,2.0,0.8635665517103182,0.13643344828968187,-1.8452340292487495,1,86.77485568406473,1.7827008136687255,0,69,89.57744428448859,61,87.79342989161114,1.1311475409836065,0.9999736803772944,2.631962270557394e-05,-10.545169466535437,1,83.47228841695733,1.716266890850875,0,45,86.20811677383335,40,84.49051457539599,1.125,0.9992403098353269,0.000759690164673158,-7.181839906993349
17,0,99.24911466736603,3.1504109428851734,1,12,103.40278605211961,23,100.2509228634683,0.5217391304347826,0.12484967527406998,0.87515032472593,1.94728525549467,0,137.5749672494086,1.6491558327657003,0,51,140.24448336238345,7,138.59357464211382,7.285714285714286,0.9916806884144576,0.00831931158554239,-4.780821659501772,1,92.07845248122294,2.683916101597333,0,14,95.78188580196684,8,93.0967153803731,1.75,0.969420222387728,0.03057977761227203,-3.4563592557711265,1,88.7091593409109,1.6996182126472377,1,40,91.42832874798705,93,89.72736811664709,0.43010752688172044,5.1867556694062955e-08,0.9999999481324433,16.77457230223866
18,1,105.90360461937394,3.717581655244203,0,37,110.62478883967287,54,106.90541676609041,0.6851851851851852,0.3648019610729062,0.6351980389270938,0.5545821886629336,0,142.74489304107203,1.764375889875737,0,53,145.51458448230358,15,143.74850074192534,3.533333333333333,0.9840653499553127,0.01593465004468734,-4.123196321200437,0,98.28269212231726,1.9661495576101515,1,14,101.26862754083731,57,99.30112489787643,0.24561403508771928,3.235619923847022e-05,0.9999676438007615,10.33867256840701,0,93.92936973481892,1.4826137421323438,1,24,96.43166701695418,90,94.94768043640033,0.26666666666666666,5.0095927406346163e-11,0.9999999999499041,23.717081400386274
19,0,113.12534903676124,1.7991657883135304,0,56,115.94476843870143,59,114.14390862703499,0.9491525423728814,0.9896052149500277,0.010394785049972282,-4.556001847937043,1,148.01524739536,2.933302966279143,0,46,151.95209129711304,40,149.01712196178016,1.15,0.6679652997954123,0.3320347002045877,-0.6989967436300224,1,103.7697514905667,1.215630051847711,0,98,106.00493036647458,73,104.78803888352468,1.3424657534246576,0.9999999929627594,7.037240603322323e-09,-18.772049696330875,1,98.93274434943623,4.700988285639141,0,15,104.6368382128685,19,99.93464261954159,0.7894736842105263,0.5926734379136765,0.40732656208632345,-0.3750283248224092
20,0,125.46862896305856,3.500169481347484,0,55,129.98731062731008,60,126.48582045564785,0.9166666666666666,0.9822113096844939,0.01778869031550615,-4.011243588355928,1,161.47550579713118,3.21696614955772,0,74,165.71160872169196,60,162.49299714133565,1.2333333333333334,0.8071379991359144,0.19286200086408556,-1.4315197445718606,0,115.52930368055013,1.3988532157209193,0,71,117.94657347431212,69,116.54632134611666,1.0289855072463767,0.9998875941105166,0.00011240588948337219,-9.09328181213099,1,114.14518072479541,1.6151576374063552,0,97,116.77861429837867,61,115.16207355095412,1.5901639344262295,0.9999999999886386,1.136130671473199e-11,-25.20080768153408
21,0,132.48814183652985,3.583985316357257,1,35,137.07575776730232,62,133.49003339059072,0.5645161290322581,0.04954523724652027,0.9504547627534797,2.954054431685461,1,168.21338570794217,2.4614992896797503,1,40,171.69941475601797,93,169.23580978898974,0.43010752688172044,0.003516135027685441,0.9964838649723146,5.646870564959041,0,120.44737386874158,0.8486262924434413,0,62,122.29932341781841,17,121.44936813877075,3.6470588235294117,0.9999999981924191,1.8075808253460664e-09,-20.131276444437148,1,119.27980856904014,1.5988364651166194,0,98,121.89866042574977,73,120.2985099863622,1.3424657534246576,0.9999999991306825,8.693175137293962e-10,-20.86331267824354
22,1,139.5761915447374,1.983397939043698,0,42,142.56448073917568,39,140.57823717275073,1.0769230769230769,0.987288668769385,0.012711331230614983,-4.352468649009801,1,174.19986512603248,2.6832456823738084,0,97,177.90386101423326,61,175.21825523495875,1.5901639344262295,0.9758746375877984,0.024125362412201628,-3.7000704636892046,1,124.80039166388815,1.2324205570998856,0,94,127.0525933411609,46,125.81882127895597,2.0434782608695654,0.9999999999825672,1.7432778081301885e-11,-24.772668884036495,1,124.39964136324625,1.5162789007181345,1,28,126.91882159500483,82,125.40145192971704,0.34146341463414637,9.739426487520575e-09,0.9999999902605735,18.44708359347091
23,0,145.0636716533952,1.5645625168888273,0,43,147.63256364834456,7,146.06631816982258,6.142857142857143,0.9999914136778478,8.586322152194827e-06,-11.665331481869126,0,180.4039992857289,2.2829738011071186,0,62,183.7076063544838,17,181.4224968513605,3.6470588235294117,0.9921323229633181,0.007867677036681866,-4.837093636490711,0,129.5535201552434,2.6165956609611385,0,40,133.1733865296701,15,130.55547728949932,2.6666666666666665,0.9999931438122438,6.856187756252683e-06,-11.890352135148053,1,129.4196381869524,0.9153414989896191,0,33,131.33826738704784,25,130.42161665452477,1.32,0.9991959473507737,0.0008040526492263276,-7.125041430744015
24,1,150.13429362228635,0.9632162265947954,0,33,152.11917738731654,25,151.15418970533142,1.32,0.9886950052334936,0.011304994766506371,-4.471141254244252,1,186.20780941605187,3.3291063078665957,1,17,190.56153397607193,82,187.23083991637338,0.2073170731707317,0.0010742421659889478,0.998925757834011,6.835065008298059,0,135.6744006523254,1.4323267695194772,0,58,138.1263153569853,58,136.69275718103154,1.0,0.9990777484238282,0.0009222515761718077,-6.987769835326656,1,133.8391448184534,0.7318816933279777,0,58,135.57424902775392,6,134.84111617492044,9.666666666666666,0.9999999999989055,1.0944557388178547e-12,-27.540763918400874
25,1,154.62059012694112,1.2654792964115131,0,58,156.9063194814264,6,155.63852156956318,9.666666666666666,0.999999948420528,5.15794720815011e-08,-16.78014201991181,1,193.06325012286413,1.099283674640219,1,43,195.1817721032911,97,194.08063756591594,0.44329896907216493,0.003113083729244903,0.9968869162707551,5.769023551788366,0,140.6275242449192,2.4498528791286844,1,45,144.08053010921094,60,141.62937431753153,0.75,0.7724770972821268,0.22752290271787326,-1.22235145618983,0,138.07546621197707,3.350812957382459,1,12,142.44601288216245,23,139.0938910863083,0.5217391304347826,0.05898838696517128,0.9410116130348287,2.769614887239557
26,0,159.40618041980792,2.800233639321732,0,14,163.20994906868214,7,160.40795227025978,2.0,0.9001412150660407,0.09985878493395926,-2.1987946193415886,0,197.6821592634791,3.000084148081669,1,80,201.70233228457698,60,198.70046680456937,1.3333333333333333,0.8860989756835048,0.11390102431649521,-2.0514987915358196,0,146.58151025658435,1.198869571263458,1,12,148.7837342943335,23,147.58340102052261,0.5217391304347826,0.17264846999153216,0.8273515300084678,1.5669721093357576,0,144.94674927664255,1.4824975940759941,0,86,147.4325124483853,59,145.94861515171124,1.4576271186440677,0.9999999986219357,1.3780643079802426e-09,-20.402585996445865
27,1,165.71057998176389,1.3141820727450977,1,10,168.02968412469386,44,166.71385622608886,0.22727272727272727,0.0007572989365984828,0.9992427010634015,7.184994900214324,0,204.2030959382945,2.5287987920603427,0,96,207.7564161924612,89,205.22583448822945,1.0786516853932584,0.6391652775615406,0.36083472243845943,-0.5717430503492539,0,151.28484757740443,0.9321043499421648,1,37,153.23668010928986,52,152.3032661307525,0.7115384615384616,0.5678665012211466,0.4321334987788535,-0.27315179257840666,1,149.93347876860935,0.748482964161667,0,66,151.70222482787176,59,150.95228053153141,1.11864406779661,0.9999631904612374,3.6809538762618516e-05,-10.209716730655144
28,0,170.53040037104165,2.1660526095386103,0,87,173.70052882921163,76,171.5324870854422,1.144736842105263,0.9999826839963954,1.7316003604530396e-05,-10.963862104069195,0,210.2569029081261,2.8501966615731362,1,28,214.11050618429147,41,211.25869569683312,0.6829268292682927,0.21943259013919003,0.78056740986081,1.2689760248396862,0,155.73769462700648,1.4990870130668554,1,15,158.23995200793934,42,156.73956524281266,0.35714285714285715,0.0032836113621885765,0.9967163886378114,5.715522422967609,0,154.2031085802596,3.050186627012863,1,35,158.27307790769146,62,155.22152002250277,0.5645161290322581,0.0011114083607822733,0.9988885916392177,6.801015247965567
29,0,176.20073979200788,1.6160891922258998,0,71,178.82060537631173,69,177.20253850663607,1.0289855072463767,0.9993038346124437,0.0006961653875563434,-7.269226892235846,1,216.61208050403513,5.566830564479687,1,37,223.20018986651655,54,217.63152345163587,0.6851851851851852,0.14887263852632138,0.8511273614736786,1.743470612905561,1,160.74184435212283,2.316132095895682,1,15,164.07752724738566,42,161.75997688100597,0.35714285714285715,0.0032836113621885765,0.9967163886378114,5.715522422967609,0,160.77416827720026,0.8488771564425406,1,15,162.6425828009219,42,161.7924509294212,0.35714285714285715,0.000134297279827722,0.9998657027201723,8.915320402789034
30,1,181.3216870544693,1.3478796263666482,0,46,183.69075382458936,40,182.3406571135547,1.15,0.995678715425679,0.004321284574321032,-5.439871917450677,0,225.70074413768373,5.234867172450777,0,77,231.95583094847927,72,226.71929424648363,1.0694444444444444,0.6094692385844198,0.39053076141558013,-0.44508173711985827,0,166.57851766635622,1.8161036514738953,0,62,169.4140650555537,16,167.59698481225905,3.875,0.9999999986359501,1.3640498824003586e-09,-20.412807706155032,1,165.14360917048134,0.9653460026893299,0,16,167.11196712140872,10,166.14539840363568,1.6,0.9892285431427661,0.010771456857233885,-4.520025638047004
31,1,186.19093752814797,2.779414692808132,0,66,189.994334819291,59,187.21321780684025,1.11864406779661,0.9995986699149881,0.00040133008501191497,-7.820324903981021,1,234.4566408243826,6.986162973895944,0,58,242.46289425154043,6,235.4751186369432,9.666666666666666,0.9963601494872081,0.003639850512791935,-5.612166175204222,1,171.91514159791268,0.8655839086741253,0,53,173.8005666760955,55,172.93362375614925,0.9636363636363636,0.9970747842043675,0.0029252157956325144,-5.831457522133746,0,169.6148036623772,2.381767994652364,0,55,173.01614299959056,60,170.6330345615529,0.9166666666666666,0.9852217527874215,0.014778247212578473,-4.19971042892191
32,1,192.49606795372392,1.7564007850660346,0,25,195.28151562941957,37,193.52325687051302,0.6756756756756757,0.31859662841735215,0.6814033715826479,0.760228638311529,1,244.96366896697748,1.6496958817217546,0,75,247.6333537711772,70,245.9819449031546,1.0714285714285714,0.6117070260156734,0.3882929739843266,-0.4544933099542018,0,176.30157921850514,2.6172012901124617,0,22,179.93806977732766,31,177.31954226604057,0.7096774193548387,0.545521099225633,0.4544789007743671,-0.18258999361429123,0,175.5175916898038,0.682124893136006,0,71,177.21899241956135,64,176.53556105832195,1.109375,0.9999783025261594,2.169747384059085e-05,-10.738293019361128
33,1,197.7819802216452,0.9654775581411741,0,53,199.7517307640644,40,198.78398002253425,1.325,0.9995585031404266,0.00044149685957345364,-7.724898056681461,0,250.13370419065348,2.9836136425767563,0,87,254.12063871949533,85,251.1354025596819,1.0235294117647058,0.5184708383597552,0.48152916164024484,-0.07391699021464232,1,182.43872834470858,2.116227858782622,1,40,185.5582403490448,93,183.44068666414887,0.43010752688172044,4.236751490560575e-05,0.9999576324850944,10.069086278849536,1,179.71997138175084,0.9653519286107439,1,10,181.6884608881296,44,180.72188229382118,0.22727272727272727,4.683809356031965e-06,0.999995316190644,12.271394130340129
34,0,202.25164029500024,1.3989942526463892,0,87,204.65396452032428,85,203.2534769355243,1.0235294117647058,0.9998764731544637,0.0001235268455363448,-8.998928518278747,1,256.6212917560164,4.951622359212024,1,42,262.57641001370064,39,257.62330617417786,1.0769230769230769,0.5971762095823645,0.40282379041763544,-0.3937130065652156,0,188.0592398544277,1.5158727775819898,1,45,190.57832408626246,92,189.0611863220256,0.4891304347826087,0.00041506971053051345,0.9995849302894695,7.786648918782396,1,184.18985901048154,3.867138080285713,0,52,189.0768106059768,68,185.20837237856995,0.7647058823529411,0.3633980922653578,0.6366019077346422,0.5606456053334135
35,1,207.15580076578703,2.814974170884625,0,16,210.99188109283455,10,208.17532707134637,1.6,0.8999511005917299,0.10004889940827011,-2.1966813686202347,0,265.07705593911635,3.800802922822413,1,45,269.881378464096,42,266.07895618452847,1.0714285714285714,0.5937755742822668,0.40622442571773315,-0.3795956473136993,1,193.07941603601694,1.165529548223276,0,16,195.24807328547286,10,194.08121593582928,1.6,0.9757232330162633,0.02427676698373669,-3.6936591716739824,1,191.57789544462548,1.6321365869539477,0,75,194.21353148560456,70,192.58011766509208,1.0714285714285714,0.9999681135539182,3.188644608173656e-05,-10.35329763922923
36,0,213.4942076095149,1.0654087384425566,0,12,215.57883095005946,3,214.51124858370463,4.0,0.9182822691601742,0.08171773083982575,-2.4192338240396585,0,272.3820895746452,2.650113461638739,1,22,276.0518403541015,31,273.4001628443158,0.7096774193548387,0.3081891641196899,0.6918108358803101,0.8085987960253261,0,197.7490202476879,1.7993581832233758,0,38,200.55174040356314,43,198.75102439425245,0.8837209302325582,0.9611011274391987,0.038898872560801254,-3.2071143677086744,1,196.71475854636356,0.7650873954867166,0,72,198.49972464219263,51,197.73330154405812,1.411764705882353,0.9999999316758963,6.832410372051636e-08,-16.499003154779082
37,1,218.07888902408763,1.7157900517215694,0,74,220.79850287525687,60,219.08095242986474,1.2333333333333334,0.9999633278911114,3.667210888854114e-05,-10.213457394839487,0,278.552775859535,1.5157285801651597,0,14,281.0888856581645,7,279.57153021508714,2.0,0.722644542773994,0.27735545722600596,-0.9576175365573593,0,203.0546713642102,0.7651229510142912,0,53,204.83780990592777,15,204.07136231398545,3.533333333333333,0.999999962266141,3.77338590099656e-08,-17.092707990849107,0,201.00083753020226,2.317035206292985,0,12,204.32084991932834,3,202.002634664585,4.0,0.995077231232937,0.004922768767063029,-5.308949223727239
38,0,223.29897931932487,1.5325554310672942,0,62,225.83575440137906,17,224.30100953994292,3.6470588235294117,0.9999998456874742,1.5431252576138668e-07,-15.684285748585522,1,283.58949049719274,3.567211798746257,0,33,288.16065528046977,25,284.59131133526023,1.32,0.7263621538520592,0.27363784614794084,-0.9762432222089228,0,207.34039400265146,2.9656521752872322,0,87,211.32538877993966,85,208.3584925562527,1.0235294117647058,0.9999831590641968,1.6840935803222407e-05,-10.991681139353837,0,206.82145554847966,1.2657262097964121,1,45,209.09051331119917,92,207.82334433711048,0.4891304347826087,9.931066523582999e-07,0.9999990068933476,13.822426781373897
39,0,228.33674284504264,1.8321024536476216,0,96,231.18957140577072,89,229.3551874724444,1.0786516853932584,0.9999843263739338,1.5673626066288273e-05,-11.063515452811464,0,290.66088441609133,2.566171602037457,1,24,294.23105561990667,90,291.6631094019875,0.26666666666666666,0.0009331219126051948,0.9990668780873948,6.976041140795964,1,213.82664902585748,1.7654014693125646,0,74,216.6124332938798,60,214.8457526157017,1.2333333333333334,0.9999973144083815,2.685591618485049e-06,-12.82760682659988,0,211.59133029820805,0.9822953226307618,1,7,213.57682601337183,54,212.59320921030348,0.12962962962962962,1.787957926158157e-08,0.9999999821204207,17.839606580829784
40,0,240.7118627461823,3.5835843290196863,0,60,245.31457673909972,40,241.72939162122134,1.5,0.9999550504202561,4.4949579743934926e-05,-10.009924195912248,1,303.7542903669804,3.2501394566800172,1,42,308.0233007223302,67,304.7716406742592,0.6268656716417911,0.06715193736011116,0.9328480626398888,2.6312845656140738,1,226.11946775745764,5.218851777697182,1,42,232.3566148293412,67,227.13701599050592,0.6268656716417911,0.12467214730615817,0.8753278526938418,1.9489110348432914,0,223.10053206871544,3.5330362208110273,1,14,227.65279750890068,57,224.1184619310916,0.24561403508771928,1.8855291794572793e-07,0.999999811447082,15.483886949095636
41,1,247.8153656767479,5.351802191168645,1,12,254.17115956846646,9,248.81715135434933,1.3333333333333333,0.7519945025036481,0.24800549749635187,-1.1092781001793597,1,310.52797587913017,1.8496570076783883,1,14,313.39361707170985,57,311.5425149293709,0.24561403508771928,0.011610536118544235,0.9883894638814558,4.444163842334222,0,234.85726905104684,3.050304750376199,0,43,238.91079947788694,7,235.85916574090606,6.142857142857143,0.9999997829517385,2.17048261491477e-07,-15.343145887899059,0,230.15381479204734,3.4673540998683166,0,60,234.64077302457417,61,231.17212312326046,0.9836065573770492,0.9982458226134773,0.001754177386522732,-6.34399953982125
42,1,256.6712998152691,1.8996231904211527,1,24,259.5743620153187,69,257.67305467808023,0.34782608695652173,0.0003117206136555861,0.9996882793863444,8.073091471170697,0,315.8946248733829,1.71608476753795,1,12,318.6304259710215,23,316.9128225873993,0.5217391304347826,0.2733658347980926,0.7266341652019074,0.9776121870092693,0,241.41158723035096,0.7820647647881742,0,14,243.19683460990836,7,242.41363127811837,2.0,0.9767492032393933,0.023250796760606728,-3.7378905174890105,1,237.14169312261265,0.9822001128295597,1,42,239.12703002308717,67,238.14354556559329,0.6268656716417911,0.005203783079615776,0.9947962169203842,5.253152032680433
43,0,262.0749941135848,5.168487373047128,1,22,268.26399268030195,31,263.09345572862753,0.7096774193548387,0.39422905656713647,0.6057709434328635,0.4295698312644232,0,321.13128088392625,1.79942534366387,1,54,323.950872532644,80,322.1497191903453,0.675,0.05755212085907124,0.9424478791409288,2.7957896301979734,0,245.70105781644816,2.7001776196129867,1,9,249.4179382376783,7,246.71641543394344,1.2857142857142858,0.8503036254574835,0.1496963745425165,-1.7369844191424502,0,241.62804256549725,2.1835008920484142,0,51,244.81470197356884,7,242.63002577380666,7.285714285714286,0.9999999999419277,5.807234994653573e-11,-23.569331469825784
44,0,270.7641443838859,1.148731931866223,0,41,272.91635246115356,22,271.7660489749735,1.8636363636363635,0.9995640633366533,0.0004359366633467406,-7.737577561009582,1,326.4515093716469,4.284413404907809,0,45,331.756125427259,40,327.4700772582106,1.125,0.6446643372762626,0.35533566272373746,-0.5956669024693627,0,251.9197495942717,1.114638526705221,0,53,254.05444459895716,57,252.93829377715065,0.9298245614035088,0.994874533049983,0.005125466950017074,-5.268394998697978,0,247.3162178242228,4.400979041201481,0,78,252.73642371443066,34,248.3339967731381,2.2941176470588234,0.9999999999966553,3.3447022865301232e-12,-26.423643428838073
45,1,275.41780944765674,3.0832473416317043,1,15,279.52151306942164,42,276.43595422344356,0.35714285714285715,0.005963114133541891,0.9940368858664581,5.116181464239075,1,334.2567559452792,1.1487955367540508,1,43,336.40891424480844,93,335.2585906104963,0.46236559139784944,0.004787818695251689,0.9952121813047483,5.336881041477041,1,256.5551169934879,1.549241640105265,1,19,259.10755349526653,37,257.55700143644344,0.5135135135135135,0.06255328087614365,0.9374467191238564,2.707141235700948,0,255.23721304714036,2.0330567640044137,0,53,258.28998219063124,15,256.2556493782522,3.533333333333333,0.9999999994694956,5.305044590441138e-10,-21.357192752018136
46,1,282.0216892668134,2.0148740623217236,0,32,285.04133922659616,16,283.0249327210406,2.0,0.9977835787105906,0.0022164212894094084,-6.109642534430302,1,338.9099449600434,1.3327780086692655,1,28,341.2624420642434,82,339.9280593161012,0.34146341463414637,0.0033400070778352164,0.9966599929221648,5.698436755530782,1,261.6086197660288,0.9322347202096353,1,10,263.5606051866821,44,262.6270264675345,0.22727272727272727,0.00025360194170787054,0.9997463980582921,8.27949104474962,1,260.79228776905666,1.8807123905485241,0,41,263.69392656282344,7,261.8118583214946,5.857142857142857,0.9999999905087626,9.491237366959548e-09,-18.472896836930424
47,0,287.54295463272706,2.716536322736829,1,28,291.2790212116374,41,288.56071935943146,0.6829268292682927,0.3420357043995421,0.6579642956004579,0.654235537405201,0,343.7631069526068,1.5654762939445845,0,71,346.3328388481274,64,344.76532640764333,1.109375,0.6658307061273325,0.3341692938726674,-0.6893877107785539,1,266.06152567978233,1.115554674129271,0,42,268.18024874647017,39,267.06337180178025,1.0769230769230769,0.9973590293459939,0.0026409706540061364,-5.9339642932574606,1,266.1945657721949,1.0821166758587424,1,3,268.2800278281261,18,267.19656162246974,0.16666666666666666,0.004788371513845369,0.9952116284861546,5.336765029103649
48,1,293.7794549890725,2.866975314982483,1,40,297.666375769777,93,294.7978553695957,0.43010752688172044,0.0003064965617345372,0.9996935034382655,8.089997476941376,1,348.83323193423655,3.567032440863386,0,41,353.42107423520054,7,349.8517547837986,5.857142857142857,0.9769669627248714,0.023033037275128638,-3.747523247895174,1,270.6813383258559,1.549271664772732,0,88,273.2502571849818,96,271.6997074965275,0.9166666666666666,0.9997503044561491,0.00024969554385090065,-8.295018480126426,1,270.7809542471473,1.6160168959863768,1,43,273.4001087209017,97,271.7827328136432,0.44329896907216493,4.75561470203445e-08,0.999999952443853,16.861354733878336
49,0,300.1670600161501,1.4658536566093971,1,14,302.6365272995338,57,301.16903334792414,0.24561403508771928,0.00016366862369399104,0.999836331376306,8.717503079493394,1,355.92103196362893,3.0833958847242684,1,12,360.00843456123687,9,356.9233138383694,1.3333333333333333,0.6306221106743632,0.3693778893256368,-0.5348865990803763,1,275.7515442950762,1.315833824526635,0,45,278.08684793137945,40,276.76971000911817,1.125,0.9989448078962402,0.0010551921037598307,-6.852976690547511,0,275.90109518925783,1.4326882507152732,0,58,278.33694906710207,58,276.90280145951465,1.0,0.9985525410922893,0.001447458907710744,-6.536497229887199
50,0,305.13764334803477,3.167082139589411,0,54,309.32430710178187,80,306.1555925684206,0.675,0.335880246696455,0.664119753303545,0.6817077967827968,0,362.50913658537354,3.0837929214474116,1,7,366.61280939234814,54,363.5272924228801,0.12962962962962962,0.00781886837693102,0.992181131623069,4.8433658477253445,0,280.58799914034626,1.1824354114091875,1,6,282.79028046200074,26,281.60646944674,0.23076923076923078,0.008060766380850293,0.9919392336191497,4.812653212505277,1,280.83809474520876,3.083374946469121,1,15,284.94103629350184,42,281.85644850848485,0.35714285714285715,0.000134297279827722,0.9998657027201723,8.915320402789034
51,1,311.82489179267805,2.216783631183489,0,69,315.04585991438216,61,312.8268414207671,1.1311475409836065,0.9997667041659906,0.00023329583400945268,-8.362969912840782,1,369.11335734253237,4.301555119759087,1,58,374.41877537281937,58,370.1150853411672,1.0,0.4985783891199854,0.5014216108800146,0.0056864588430318675,1,285.2990117143613,0.8814404887384626,0,62,287.19345485949225,43,286.3104329399048,1.441860465116279,0.999997270702667,2.729297333009379e-06,-12.811463639772164,0,287.44303332896106,1.0804352944710445,0,60,289.54451117470717,40,288.4626003258463,1.5,0.999999636138385,3.6386161498880224e-07,-14.826491856336387
52,0,317.54562919851514,1.2994300844009103,1,24,319.86484948950147,90,318.5637490854326,0.26666666666666666,3.1821939208143135e-06,0.9999968178060792,12.657936504647466,0,376.91926959465115,2.3494381436537424,0,40,380.28872075952916,15,377.93744004943017,2.6666666666666665,0.9415804052796216,0.05841959472037836,-2.7799083861118596,1,289.69409880960075,1.162667328263069,1,28,291.863198527843,82,290.6991820648436,0.34146341463414637,7.698964374580619e-06,0.9999923010356254,11.774417035963843,0,292.0451365569288,4.184381483945344,1,45,297.2330127541627,60,293.0472118145485,0.75,0.28972413936801844,0.7102758606319816,0.8967242039734495
53,1,322.3663072661275,2.4331595589849258,0,98,325.8190342170592,73,323.3840719928319,1.3424657534246576,0.999999751940097,2.4805990297174026e-07,-15.20959532764772,0,382.7891256974809,1.3158294788506737,0,50,385.1084293464261,7,383.7909579923295,7.142857142857143,0.990783419003002,0.009216580996998009,-4.677491818341112,0,294.3639760087103,2.232823124682909,0,96,297.6166825744731,89,295.38247396940324,1.0786516853932584,0.9999985833115483,1.4166884516265304e-06,-13.46718706950611,0,299.7341655433752,1.3994063017034932,1,6,302.1529997803459,26,300.75215387484104,0.23076923076923078,0.0008760068263981013,0.9991239931736019,7.039260283621744
54,1,328.3193554019906,2.650066054268791,1,55,331.9729501448294,95,329.3211861165935,0.5789473684210527,0.025827091803014124,0.9741729081969859,3.6301648008291467,0,387.6091286051329,3.75053254278896,1,56,392.36331823145235,59,388.61113038132896,0.9491525423728814,0.4205827107019008,0.5794172892980992,0.32038176874218394,0,300.11786143773907,0.9653704964971439,0,86,302.08638610458365,59,301.1196672634728,1.4576271186440677,0.9999999833576093,1.6642390683461892e-08,-17.911312724349507,0,304.65387168089137,0.8151262695300829,1,28,306.4890998604642,41,305.67252648096655,0.6829268292682927,0.13169811244776242,0.8683018875522376,1.8860271744771018
55,1,334.4734732061445,1.0491171957592087,0,72,336.5424023368671,51,335.4917210929609,1.411764705882353,0.9999901253159651,9.87468403490868e-06,-11.52552636942114,0,394.8644078108383,1.7646595439728117,0,95,397.6333853760906,16,395.8670902778546,5.9375,0.9997648411251131,0.00023515887488692228,-8.355014022370316,1,304.5876747949237,1.4657596319925688,1,25,307.07308675706736,37,305.60595665702203,0.6756756756756757,0.42407822386594995,0.57592177613405,0.3060539176850773,1,308.99052050131695,2.1325857717843064,1,50,312.1431959362403,62,310.00921757296373,0.8064516129032258,0.6992305940839243,0.30076940591607576,-0.8436367013775508
56,1,339.0432201139988,2.1146665760657015,1,43,342.163033945257,93,340.04666149399577,0.46236559139784944,0.0008156570689064058,0.9991843429310936,7.110700560128603,1,400.13405302988406,2.8167685398373123,1,52,403.9548077394112,68,401.13597934934967,0.7647058823529411,0.15368042122502779,0.8463195787749722,1.7060217815853094,1,309.57388438606677,1.6994582127740614,0,56,312.27641499147467,46,310.57564754516716,1.2173913043478262,0.999929918563987,7.008143601289649e-05,-9.56578253660264,1,314.64365894822004,0.9154039186928458,1,17,316.56207718551923,82,315.64540907029414,0.2073170731707317,3.579692098298892e-11,0.9999999999642031,24.053159232246593
57,1,344.6636944879449,1.5160683329831954,1,15,347.19941633626354,56,345.68184597977597,0.26785714285714285,0.0002821626099069885,0.999717837390093,8.172744819912749,0,406.45507756635845,1.7159698046659742,0,41,409.1742793684706,22,407.4568592933457,1.8636363636363635,0.8934988090737396,0.10650119092626041,-2.1269888342276966,1,314.7776317806365,0.9153201656731653,0,58,316.69607293149784,58,315.77960076673526,1.0,0.9990777484238282,0.0009222515761718077,-6.987769835326656,0,319.06345713504606,1.6992215709856282,0,38,321.78215483879103,43,320.081685663853,0.8837209302325582,0.9170216268787651,0.08297837312123488,-2.4025510473215794
58,0,349.7001989529292,2.516789715129107,0,38,353.22071172684514,43,350.70196013672285,0.8837209302325582,0.8978385272533677,0.10216147274663231,-2.173435610685346,0,411.6752571454757,2.7669591964768188,1,55,415.46219025209655,60,412.6936010322164,0.9166666666666666,0.37010946490801655,0.6298905350919835,0.5317472374806759,0,319.1971992515955,0.7988556651021099,0,45,321.0152454200529,42,320.215506792686,1.0714285714285714,0.9981485152015231,0.0018514847984768819,-6.289914167111743,0,324.28332580082906,0.8655641556038063,0,62,326.1518864972745,17,325.2851596759233,3.6470588235294117,0.9999999999878796,1.2120443900074312e-11,-25.13612751052728
59,0,355.7209661463969,1.1988660157107915,0,60,357.9394682947411,70,356.7395249465483,0.8571428571428571,0.969532267282315,0.030467732717685016,-3.4601455766107567,1,417.9627547948604,4.134435844396421,0,14,423.11725501846524,8,418.9811551753836,1.75,0.700479430987226,0.299520569012774,-0.8495819089795275,1,323.51657164122753,0.9322082510943801,0,46,325.4520517909714,36,324.5185497137386,1.2777777777777777,0.9997704781911343,0.0002295218088656727,-8.37928295708836,1,328.6531313357973,2.1663402142494306,0,94,331.83925306528135,46,329.6716289014289,2.0434782608695654,0.9999999999998775,1.2248346239570868e-13,-29.730800374890574
60,0,367.4636673867319,3.4835441117675146,0,78,371.9664146438206,34,368.4808798175761,2.2941176470588234,0.9999999659576825,3.40423174726312e-08,-17.19566142065171,1,432.6406256666661,2.816481330187571,1,15,436.47663330241323,42,433.6580636775792,0.35714285714285715,0.061786097322498734,0.9382139026775013,2.7202995875060942,1,334.95903450150354,1.899087882202366,0,46,337.8768960972675,40,335.97651794447984,1.15,0.9992925655585545,0.0007074344414455332,-7.253157910216824,0,341.34604219571975,1.716151532917138,1,7,344.0814039850634,54,342.36368445338485,0.12962962962962962,1.787957926158157e-08,0.9999999821204207,17.839606580829784
61,0,374.46690847059085,2.182970719627974,1,45,377.670226433401,92,375.4854818880142,0.4891304347826087,0.0019470129413899917,0.99805298705861,6.239509994943041,1,438.97668426533585,3.0833974649699485,1,88,443.0633236042876,96,439.97869670819034,0.9166666666666666,0.266755818132819,0.733244181867181,1.011145071980848,0,340.37888246606826,2.3495270324724515,0,95,343.74822617424115,16,341.39714378497274,5.9375,0.9999999999999974,2.5092613818748737e-15,-33.618787955242325,1,346.5818417131127,0.8153581705814759,1,54,348.40042477003453,78,347.58374195852457,0.6923076923076923,0.027102817038218263,0.9728971829617817,3.5806407342377415
62,0,380.17058238373716,0.9490753982613569,0,80,382.1231876557529,60,381.1724048020503,1.3333333333333333,0.9999948269929365,5.173007063511696e-06,-12.172051228465875,0,445.5651811830668,2.166342979679712,1,37,448.7509773819437,52,446.58301386033475,0.7115384615384616,0.1783745094784458,0.8216254905215542,1.5273993577498968,0,346.24846874195055,1.7659545552951386,0,60,349.01799781293994,40,347.2506514562756,1.5,0.9999973887919695,2.61120803043936e-06,-12.855694985587192,0,350.9024956819785,1.0157171233840927,0,71,352.93664716116746,69,351.91968480419973,1.0289855072463767,0.9998365192784692,0.00016348072153084,-8.71865199161943
63,1,384.62357916161614,1.2156312370320848,0,97,386.8426719267775,61,385.6254880983795,1.5901639344262295,0.9999999749670905,2.5032909573844825e-08,-17.503074469763927,1,451.25166478880794,2.416461893165888,1,55,454.68870543114633,95,452.27023346549447,0.5789473684210527,0.013216374956936061,0.9867836250430639,4.312994202704787,0,351.519871589237,1.59948002016381,1,35,354.1379542613695,62,352.53721676071746,0.5645161290322581,0.03414085453910254,0.9658591454608975,3.3425232639390616,0,355.43769683935034,4.00099673995328,0,14,360.4415700214754,7,356.43942286267793,2.0,0.9910978754152784,0.008902124584721656,-4.712523328112951
64,1,389.3434486175222,1.0822577127842123,0,94,391.42932746324755,46,390.3453812579703,2.0434782608695654,0.9999999974791429,2.520857122890641e-09,-19.798666862601475,1,457.1889452334259,1.9831964577213057,1,4,460.1923170826136,22,458.2071235894331,0.18181818181818182,0.15496021680965943,0.8450397831903406,1.696215288716716,0,356.63886566805695,1.9495968793307838,0,50,359.60832742058074,7,357.6574382953572,7.142857142857143,0.9999999868180114,1.318198860482041e-08,-18.144414425584245,1,362.9426252305184,1.6159402540720293,0,12,365.56163748216295,9,363.94438759949617,1.3333333333333333,0.9471189675087444,0.05288103249125559,-2.8853799904372
65,0,393.9309120545879,1.4313241036452382,0,50,396.3823262164335,7,394.9494234473689,7.142857142857143,0.9999991261512183,8.738487816660435e-07,-13.95035762109991,1,462.69392063690213,2.6667048559370414,0,16,466.3801269095294,10,463.7116292648856,1.6,0.6985010895506452,0.30149891044935484,-0.8401703361451834,1,362.10930480252455,1.0493348745999356,0,54,364.17814701973566,31,363.12746814619777,1.7419354838709677,0.9999977132782352,2.2867217648792065e-06,-12.988389023032276,0,368.0627207405664,1.7827821963201131,0,87,370.84878076145696,85,369.0646063687059,1.0235294117647058,0.9999698741286414,3.0125871358637554e-05,-10.410096115478565
66,1,398.88318705525967,1.0153793458730433,0,58,400.91868450869356,58,399.90181815164965,1.0,0.9956238161456531,0.004376183854346956,-5.427192413122555,0,468.8800269589909,2.0995132053228645,1,71,471.9833979390436,69,469.88204453764376,1.0289855072463767,0.537233340145716,0.462766659854284,-0.1492095728893954,1,366.68021674649526,2.6992650277416033,0,6,370.39867622820657,8,367.69820744832987,0.75,0.5633845245930448,0.4366154754069552,-0.2549094984166303,1,373.3496498965728,1.2990322575546998,1,55,375.6518505466861,95,374.35144150009546,0.5789473684210527,4.831226582557857e-05,0.9999516877341744,9.937776765272767
67,0,403.4195224339576,1.2992570475007597,0,77,405.7228964164767,72,404.42136263003454,1.0694444444444444,0.9998108616916138,0.00018913830838622285,-8.572842863932085,1,474.48383487697004,1.7494563954912792,1,82,477.25352315771,40,475.5022431587214,2.05,0.9880955958935294,0.011904404106470637,-4.418871025413775,1,372.89969785702897,0.9822435695855347,1,43,374.90182091707993,93,373.9182392744774,0.46236559139784944,0.00014072775389106784,0.9998592722461089,8.868542619839271,0,378.1534991379758,2.299679368154557,0,41,381.47241681191736,22,379.1714590250199,1.8636363636363635,0.9999959385796886,4.061420311396125e-06,-12.413973753705324
68,1,408.2228596757652,1.4325270656572684,0,87,410.67623926815645,89,409.24133195746595,0.9775280898876404,0.9997042276591939,0.00029577234080617525,-8.125624702371882,0,479.7545748112001,2.533374788444462,0,43,483.30749289284506,7,480.77243751313574,6.142857142857143,0.9811864090649328,0.018813590935067136,-3.9541829302164935,1,377.40380215008236,1.563990863019626,0,66,379.9887569471548,59,378.4232411470689,1.11864406779661,0.9999502120773356,4.978792266436719e-05,-9.907688330963268,1,383.97337997165005,4.234404160471058,0,58,389.21091459878335,58,384.9751435258122,1.0,0.9985525410922893,0.001447458907710744,-6.536497229887199
69,1,413.17616894722437,3.917320756684603,1,42,418.11435684791536,67,414.1949572780584,0.6268656716417911,0.14670794129729114,0.8532920587027089,1.7606580623382584,0,485.8098865699661,2.132810956791218,1,15,488.9612583022157,42,486.8266529764718,0.35714285714285715,0.061786097322498734,0.9382139026775013,2.7202995875060942,1,382.49360711616237,1.0150261609669542,0,32,384.5248675359071,16,383.50859574629476,2.0,0.9997768339192702,0.000223166080729851,-8.407371116075671,0,391.7119978571868,1.399249067259916,0,80,394.1309691804686,60,392.73042391670197,1.3333333333333333,0.9999999560756524,4.392434762145838e-08,-16.940797011160313
70,1,420.6155127976192,0.9322987201589967,0,56,422.56674918182784,46,421.6328271543091,1.2173913043478262,0.999385593529596,0.0006144064704039946,-7.3942392496343565,0,491.4629598317355,1.4322532880960352,0,9,493.91533043726974,7,492.4808750768394,1.2857142857142858,0.6084897403779708,0.3915102596220292,-0.44096833075406017,0,387.0263707445961,2.750057678967096,0,87,390.79598040811425,76,388.0445921622977,1.144736842105263,0.9999986635100637,1.3364899362755057e-06,-13.525462494814793,0,396.63298873442864,2.7155435333979767,0,45,400.3683426225439,42,397.651510003745,1.0714285714285714,0.998297550862971,0.0017024491370290073,-6.3739834958966695
71,0,425.0675807861087,1.3324552434924044,0,45,427.41982465594106,60,426.0858259074955,0.75,0.6785073286678014,0.32149267133219855,-0.7469205323119507,1,496.4151471287727,2.6666384856189325,0,69,500.0851673401147,61,497.41697784337555,1.1311475409836065,0.6914346332745267,0.30856536672547324,-0.80683491119073,1,393.2995553188698,1.0658243430525545,1,14,395.38220532764035,57,394.3150851831424,0.24561403508771928,3.235619923847022e-05,0.9999676438007615,10.33867256840701,0,402.8692323008536,0.9822091992423339,0,87,404.854620559312,76,403.87111674380867,1.144736842105263,0.9999992054188845,7.94581115419815e-07,-14.045449965413622
72,1,429.92054801339395,1.9162422390186293,0,53,432.8409498540643,55,430.9225166044314,0.9636363636363636,0.9884563473235951,0.011543652676404934,-4.450008747030715,1,502.5859448209818,3.851033401652785,1,3,507.4571156882049,18,503.6044222384811,0.16666666666666666,0.20303981646860536,0.7969601835313946,1.367402619566049,1,397.88317678366275,0.7820726660165747,0,97,399.68494681683205,61,398.90155306543966,1.5901639344262295,0.9999999996419124,3.5808754596048126e-10,-21.750243617276176,0,407.35570065722413,1.2490471118640016,1,22,409.60786559378494,31,408.3575155693702,0.7096774193548387,0.2881049041916074,0.7118950958083926,0.9046058987309186
73,1,435.340949459003,1.76612245639717,1,28,438.1106017891541,82,436.34282995134413,0.34146341463414637,6.734600332614082e-05,0.9999326539966739,9.605599650451413,0,509.95842887235256,1.5141665073251716,1,35,512.4940029677012,62,510.97791369646313,0.5645161290322581,0.05655015209752878,0.9434498479024712,2.8144153158495335,0,402.18699995101224,1.8483730580755946,0,60,405.0552639563348,61,403.20563420789404,0.9836065573770492,0.9990360805970849,0.000963919402915024,-6.943538489511628,0,412.1089915188213,1.9661582489616194,0,40,415.0784335182748,15,413.1108376408197,2.6666666666666665,0.9999996000107356,3.999892643820364e-07,-14.731827729254167
74,0,440.6111769985762,3.7840388866852663,1,37,445.398780129359,52,441.6130772439881,0.7115384615384616,0.47055155156438555,0.5294484484356144,0.11793028070950107,1,514.9942842514298,1.6326430556894138,0,54,517.6469825999148,31,516.012738755367,1.7419354838709677,0.923998412203315,0.07600158779668495,-2.497956121115788,1,407.5562247456987,2.9669100508363044,0,12,411.52632215204176,9,408.5581044479177,1.3333333333333333,0.9148593353529926,0.08514066464700737,-2.3744655547146185,1,417.57933781385645,2.0997810569633657,0,53,420.68218494247094,55,418.5810831951935,0.9636363636363636,0.9945140531783244,0.005485946821675607,-5.200064530084538
75,1,447.9006475846734,1.7825826903049347,1,3,450.70316823453345,18,448.9181997683361,0.16666666666666666,0.02201982454507856,0.9779801754549214,3.793546236050672,1,520.1477667968262,3.967006050760574,0,46,525.1352970782838,36,521.1667372509729,1.2777777777777777,0.7560490830899944,0.24395091691000562,-1.1311392539413503,1,414.0287059526272,1.5989917242536649,1,43,416.6470426492501,97,415.04654771630794,0.44329896907216493,4.564058075628985e-05,0.9999543594192437,9.994667666707526,1,423.18302523810326,1.7160440762118014,1,14,425.9021970155477,57,424.1848492366621,0.24561403508771928,1.8855291794572793e-07,0.999999811447082,15.483886949095636
76,0,453.20293356805246,1.3820710067589062,1,6,455.5890816086269,26,454.2050866527709,0.23076923076923078,0.010344960433313788,0.9896550395666862,4.560856951051207,0,527.6371621632298,0.9482113989440677,0,78,529.605319818019,34,528.6553266920874,2.2941176470588234,0.9905642160049148,0.00943578399508518,-4.653765426238127,1,419.1473002292937,1.1825950162210574,1,24,421.33290047770834,69,420.1491309438966,0.34782608695652173,6.0353243478861174e-05,0.9999396467565211,9.715235512328505,0,428.40646328378216,1.9662218538492198,0,9,431.38899682844703,7,429.42155700025114,1.2857142857142858,0.8969980725078522,0.10300192749214776,-2.164306011665272
77,1,458.0897069908485,1.1990718427086904,0,45,460.30871481780537,40,459.10788416167156,1.125,0.9940206113496142,0.0059793886503858844,-5.113439611846278,0,532.1057405584271,1.7496428644797106,1,7,534.8757622710026,54,533.1239920007964,0.12962962962962962,0.00781886837693102,0.992181131623069,4.8433658477253445,1,423.83380990908836,1.0651689361629906,0,58,425.902398101809,6,424.83598788267636,9.666666666666666,0.9999999995951059,4.04894148358212e-10,-21.627395444656624,0,433.8902223089599,1.9493930276403262,0,68,436.85946875301215,63,434.90879217083057,1.0793650793650793,0.999933169945927,6.683005407305298e-05,-9.613290835040855
78,1,462.80936429877397,1.415931720744993,0,41,465.22912495476544,7,463.81112034676903,5.857142857142857,0.9999835054966902,1.6494503309775186e-05,-11.01246687066033,0,537.3759357029643,2.933323509472757,1,45,541.329995986176,60,538.3945829968726,0.75,0.17292382101264425,0.8270761789873557,1.5650456490872733,1,428.40685874025985,1.532596122392988,1,4,430.9559202323594,22,429.42210811092673,0.18181818181818182,0.011130309351351397,0.9888696906486486,4.486890604972362,0,439.36050420898437,2.2829615542032116,1,54,442.6633025870201,80,440.3790977745398,0.675,0.012267030811449642,0.9877329691885504,4.388497145334417
79,1,467.7297139913369,1.6995052250822482,1,43,470.44982799025934,97,468.74777027336654,0.44329896907216493,0.0003407555534962192,0.9996592444465038,7.984004376035334,1,543.8312076395397,3.1980897200278378,1,19,548.0511264781222,37,544.8511949817718,0.5135135135135135,0.14594047184606107,0.8540595281539389,1.7668020849742958,1,433.45797613196964,0.8980686237482587,1,17,435.3757903203632,82,434.4762066360836,0.2073170731707317,9.433528425084603e-08,0.9999999056647157,16.176410452745472,1,445.1643419936063,1.4825126064097276,1,43,447.6499293630186,93,446.16608737494334,0.46236559139784944,2.392774325343794e-07,0.9999997607225675,15.245641913368132
80,0,479.9718921703568,1.298979319325099,0,86,482.2901512769174,59,480.9894546256162,1.4576271186440677,0.9999994134286971,5.865713029175131e-07,-14.34897101606898,0,557.5758280882345,3.2985577887939144,0,12,561.893526997707,3,558.593343136124,4.0,0.765504799578423,0.23449520042157704,-1.183100364547367,1,444.89915425252,4.83434837779896,0,15,450.7524308128941,19,445.91673764603456,0.7894736842105263,0.6812878579906556,0.31871214200934445,-0.7596965965437145,1,457.15725538192146,1.3321759350710636,0,69,459.5079391542208,61,458.17443976340564,1.1311475409836065,0.999982101767765,1.789823223493178e-05,-10.93079070942707
81,0,484.7906174493885,0.9153762643941263,0,62,486.7094959332378,16,485.79245171954403,3.875,0.9999998759538082,1.2404619174828688e-07,-15.902611702562238,1,564.3940073923892,1.7164091129604913,0,94,567.1310944149378,46,565.4124532049751,2.0434782608695654,0.9933773522625035,0.0066226477374965636,-5.0106153538747025,0,453.2545752062615,1.348756662710457,0,78,455.62262785372604,34,454.2724292168459,2.2941176470588234,0.99999999964116,3.588399996183786e-10,-21.74814450994211,1,462.0088845361897,1.3323157868121598,1,4,464.3445449129522,22,463.01077688037367,0.18181818181818182,0.001589358170578925,0.9984106418294211,6.442834388007589
82,0,489.21131637624353,0.8812295259422172,0,62,491.1125324542952,17,490.22968238642375,3.6470588235294117,0.9999998456874742,1.5431252576138668e-07,-15.684285748585522,0,569.6323957472429,3.615962772572402,0,28,574.2684726767624,18,570.6508174610825,1.5555555555555556,0.7713312396152705,0.22866876038472947,-1.2158434094504462,0,458.1240259760784,3.300175565293557,0,71,462.44406206888925,64,459.14238092453843,1.109375,0.9999724901278646,2.75098721353809e-05,-10.50093812072041,0,466.84567320835686,1.0988068355109135,1,37,468.94757337475676,52,467.8474628365725,0.7115384615384616,0.14900247979018244,0.8509975202098176,1.742446265903018
83,1,493.61330282405675,4.55116084846577,1,54,499.18467778000763,78,494.63182527855747,0.6923076923076923,0.4390407851053876,0.5609592148946124,0.24505588882936438,0,576.7702085766254,1.3158223677453407,1,60,579.1055513240088,61,577.787844513308,0.9836065573770492,0.4692554208880303,0.5307445791119697,0.12313365925520832,0,464.944975845945,1.6491163266241529,1,24,467.61416366288313,90,465.9636037818441,0.26666666666666666,1.633464925543393e-07,0.9999998366535074,15.62739200774944,0,471.4485551023763,1.5326494556848047,0,96,473.98431645683604,89,472.45036961946107,1.0786516853932584,0.999998456064693,1.5439353070360864e-06,-13.38117446289103
84,1,501.6854362979268,1.6661545353840665,0,14,504.37113847218666,8,502.70362057985517,1.75,0.8787311132408172,0.12126888675918275,-1.9804686653648722,1,581.6056492992401,1.4660152367287083,1,10,584.0916894090354,44,582.6240145192972,0.22727272727272727,0.03067892257696936,0.9693210774230306,3.4530200484650595,0,470.11500395851544,1.0490654427139816,1,7,472.1836043981398,54,471.13321984535696,0.12962962962962962,4.572950700554301e-06,0.9999954270492994,12.295347320933244,1,476.4853408510885,3.91792599077462,1,6,481.4068058020298,8,477.48726717055433,0.75,0.5576049353683882,0.4423950646316118,-0.2314474162483244
85,0,506.872077138112,0.9155710296722646,0,53,508.7912349303822,57,507.8738481984408,0.9298245614035088,0.9822481953339175,0.017751804666082484,-4.013356839077282,1,586.5922875320197,1.1818507205130118,1,26,588.7779980025695,84,587.5945389870309,0.30952380952380953,0.002191078970463889,0.9978089210295361,6.1211676930077425,0,474.68443797772807,1.415697054264001,0,80,477.10366332550075,60,475.68664716116746,1.3333333333333333,0.9999997566327915,2.4336720854006426e-07,-15.228694144615755,0,483.90694644389396,2.866766327493224,0,59,487.77694792932516,65,484.9088399732623,0.9076923076923077,0.9854948944896922,0.0145051055103078,-4.218643254338356
86,1,511.29305537338837,1.1803431661487593,1,4,513.4941329429073,22,512.3122648396918,0.18181818181818182,0.012863458577419662,0.9871365414225803,4.340417746353136,1,591.2788055081043,1.1655319185920234,0,53,593.4479514485321,40,592.2806863955071,1.325,0.8056996122870805,0.1943003877129194,-1.422305631754641,0,479.60445502857874,2.366428154920868,0,12,482.97402866249604,3,480.60626678023345,4.0,0.9831042511396573,0.016895748860342785,-4.063653125021922,1,490.27811889136274,1.199218410494268,0,46,492.49734360703724,36,491.2966583335042,1.2777777777777777,0.9999092395515529,9.076044844708123e-05,-9.307196192476246
87,1,515.9948906707034,0.9988290379624232,1,14,517.9972882984387,57,516.9967134840783,0.24561403508771928,0.00016366862369399104,0.999836331376306,8.717503079493394,0,595.9486025097461,2.5329872331953993,1,14,599.5018160973306,57,596.9671462975633,0.24561403508771928,0.011610536118544235,0.9883894638814558,4.444163842334222,1,485.4749890567987,0.3983811173284266,0,75,486.8767013319889,70,486.4770749810764,1.0714285714285714,0.9999699457201797,3.0054279820239547e-05,-10.412475429090353,1,495.00264928185743,3.0327221469847245,0,88,499.05113279910483,96,496.0170149001365,0.9166666666666666,0.9984632220241176,0.0015367779758824016,-6.4765293177363565
88,0,520.497800298034,0.9492120895115477,0,51,522.451174359566,7,521.4996219262246,7.285714285714286,0.9999993695238801,6.30476119861731e-07,-14.276789926704309,1,602.0025718498197,1.1155688963406192,1,24,604.1214399040474,69,603.0044369347657,0.34782608695652173,0.008948390196734102,0.9910516098032659,4.707292961661613,1,489.3777877508837,1.1991425587025333,0,52,491.59657315826325,68,490.3961494153882,0.7647058823529411,0.8546279488052124,0.14537205119478752,-1.7713699001319436,1,501.5522346253947,1.1989513489766068,1,26,503.7709366748154,84,502.5706195985226,0.30952380952380953,1.566805574171326e-09,0.9999999984331944,20.27422695489748
89,1,524.9510281868418,1.6491585981957542,0,6,527.6034812021874,8,525.9528225557945,0.75,0.3472861422039706,0.6527138577960294,0.6309897794703105,1,606.6260419744852,1.0820582067688065,1,15,608.7247504397034,56,607.6411226539277,0.26785714285714285,0.014304146614806057,0.9856958533851939,4.232798373595745,1,494.1001476739575,1.0990146378157988,0,87,496.2162834834303,89,495.11591220471155,0.9775280898876404,0.9999480696948598,5.193030514013184e-05,-9.8655560924823,0,506.27255445131505,0.9822652979632949,0,78,508.2739347959032,65,507.2903191780192,1.2,0.9999990827355077,9.172644923036137e-07,-13.901869056839535
90,1,530.1070280635824,4.017678603315289,1,26,535.1425938626419,84,531.1228427671365,0.30952380952380953,2.2654799621490973e-05,0.9999773452003785,10.695116169608843,0,611.2254374515061,2.049683318768757,0,62,614.279106149842,16,612.2273088574349,3.875,0.9929323132517629,0.007067686748237114,-4.945129264068544,1,498.7173888652728,1.2489013342014914,0,72,500.9694775549806,51,499.71921641938434,1.411764705882353,0.9999995255104381,4.74489561914126e-07,-14.561025742722212,1,510.77516580727615,1.8993316350961322,0,87,513.694196784832,89,511.7935247063506,0.9775280898876404,0.9998484408929986,0.00015155910700132382,-8.794383293285206
91,1,537.6427582081908,1.549281541308119,0,50,540.2129143996724,62,538.6612917244113,0.8064516129032258,0.8746188783850879,0.12538112161491208,-1.9424301523805065,0,616.7805133586068,1.147000772740057,1,45,618.948421176556,92,617.7997046520851,0.4891304347826087,0.006546961575865318,0.9934530384241347,5.022185731577898,0,503.4704569122314,1.8162810340495525,0,62,506.2898119191609,17,504.47224179971,3.6470588235294117,0.9999999981924191,1.8075808253460664e-09,-20.131276444437148,0,516.1951686359162,0.8656214395086863,0,50,518.0639481963863,7,517.1969736715268,7.142857142857143,0.9999999999033271,9.66728994493051e-11,-23.059688006536245
92,0,542.7170898037809,3.183529336470656,0,78,546.9164271277612,65,543.7312578913518,1.2,0.9999703955672342,2.960443276581997e-05,-10.427556847373499,1,621.4489509539152,5.718461457018066,0,50,628.1712978399622,62,622.4510755942118,0.8064516129032258,0.22020576164633754,0.7797942383536625,1.264467698439638,0,508.7908094492368,1.0654067631353428,1,7,510.87602577696725,54,509.80930266919313,0.12962962962962962,4.572950700554301e-06,0.9999954270492994,12.295347320933244,0,520.5648390598803,0.815558466719267,0,95,522.3836243882474,16,521.566711650993,5.9375,1.0,4.0181707520089304e-19,-42.358290004630305
93,1,549.4171575963198,2.800268404726012,0,75,553.2208709365957,70,550.4189701380976,1.0714285714285714,0.9997652207782826,0.00023477922171744685,-8.356630160676723,1,630.6719548270975,1.5657149110400042,1,54,633.2578234012259,78,631.6904045902976,0.6923076923076923,0.0704551726298428,0.9295448273701572,2.5797183750423076,0,513.3771833069168,3.966951532285293,0,68,518.347525651338,63,514.3793043916608,1.0793650793650793,0.9999310407415545,6.895925844553976e-05,-9.581925723430356,0,524.8848392021023,3.3828074012385514,0,60,529.2878468836766,70,525.9037902982395,0.8571428571428571,0.937534882832009,0.06246511716799101,-2.7086456898861924
94,0,555.7216006150313,5.969046542975775,0,68,562.711338499683,63,556.7399978350634,1.0793650793650793,0.9994997417449107,0.0005002582550893015,-7.59988569928295,1,635.7585202895642,1.5492688993429056,0,72,638.3110903221014,51,636.7602542141202,1.411764705882353,0.8999960519110572,0.10000394808894279,-2.1971807104510273,1,520.8502436738813,0.7479926929440808,0,33,522.6180392153765,25,521.868481289101,1.32,0.9981184404763639,0.0018815595236361146,-6.273770980284027,0,531.790116906574,0.729970386196328,0,62,533.5409398195043,16,532.8095807924296,3.875,0.9999999999919073,8.09272410892065e-12,-25.54005571607562
95,0,565.213463535041,1.3992380055401554,0,59,567.6307708596376,65,566.2298052505241,0.9076923076923077,0.9855903551152361,0.014409644884763954,-4.225343040889939,1,640.8119973831132,3.884408190097247,0,53,645.7169716804175,55,641.8303851216709,0.9636363636363636,0.45060444710347713,0.5493955528965229,0.19822878191283627,1,525.118297980604,1.315888343001916,1,15,527.4373084939784,56,526.1200970902937,0.26785714285714285,6.397462333118664e-05,0.9999360253766688,9.65696008701607,1,536.0418279175678,1.3659801552748831,0,74,538.4110728603869,60,537.043758582709,1.2333333333333334,0.9999990652036755,9.347963244314471e-07,-13.882936231423093
96,0,570.1313255258663,1.8996547953347545,0,60,573.0340424422382,61,571.1329689813576,0.9836065573770492,0.9956145989923915,0.004385401007608497,-5.425079162401204,1,648.2189714813065,2.0159549503566723,0,66,651.2538597500367,59,649.2355857891667,1.11864406779661,0.6710453106640732,0.3289546893359267,-0.7129166428644136,0,529.9394694799253,1.2986281097259962,0,55,532.2578099691377,60,530.9575917372113,0.9166666666666666,0.9946439797376311,0.005356020262368943,-5.22416365288295,1,540.9122035261598,1.3158650343784757,1,24,543.247474372366,69,541.9303222278936,0.34782608695652173,2.419363832606436e-07,0.9999997580636167,15.234590782500327
97,1,575.5348621946766,1.282904270297422,0,82,577.8379189428786,40,576.5534202047049,2.05,0.9999999658134981,3.418650185473911e-08,-17.191434919208998,1,653.7539257252932,4.701081125071823,0,87,659.4588768719985,89,654.7559887360088,0.9775280898876404,0.4113891852548692,0.5886108147451308,0.35822552009668396,1,534.7582279441162,1.1985187567256617,0,82,536.9606487224505,40,535.7605746089289,2.05,0.9999999996079696,3.9203036449009057e-10,-21.659681818312055,0,545.7485540752164,0.899155437704394,0,43,547.6671619419953,7,546.7666447275892,6.142857142857143,0.9999999965750664,3.4249335498145713e-09,-19.492183763509495
98,1,580.3381844241505,1.3325318854072066,1,52,582.6912215773061,68,581.3564334961513,0.7647058823529411,0.7833572285018927,0.21664277149810732,-1.2853390397290032,0,661.9595346492566,2.3661113156649662,0,62,665.3295092705113,17,662.9615980550335,3.6470588235294117,0.9921323229633181,0.007867677036681866,-4.837093636490711,1,539.4617596351527,1.0487640108531195,1,3,541.529840569015,18,540.4797933986815,0.16666666666666666,0.022732900231383635,0.9772670997686164,3.760946777770145,1,550.1692166564212,2.14963780769358,0,14,553.3378343997356,8,551.1867810869876,1.75,0.9867261305230299,0.013273869476970087,-4.308595122564611
99,1,585.1911761452436,4.13428888154931,0,62,590.328898900623,43,586.1930803412699,1.441860465116279,0.9999549553343683,4.5044665631746734e-05,-10.007810945190894,1,667.834049711368,2.066367947561048,0,56,670.9165306338524,46,668.8484113790329,1.2173913043478262,0.747265571142925,0.25273442885707503,-1.0840813897696302,1,544.0311027902399,1.3990764254208443,0,53,546.4328873616691,40,545.0328963690695,1.325,0.9999570068364444,4.299316355559021e-05,-10.054426447902006,1,555.8386683743852,0.999268346257395,1,15,557.8574460385612,56,556.8567953724087,0.26785714285714285,4.701021850683773e-07,0.9999995298978149,14.570315280732135
