,self_acceptUp,self_cue_times,self_decision_times,self_decisions,self_punishment_values,self_response_times,self_reward_values,self_trial_times,self_punishment_reward_ratio,self_prob_reject,self_prob_accept,self_SV,harm_other_acceptUp,harm_other_cue_times,harm_other_decision_times,harm_other_decisions,harm_other_punishment_values,harm_other_response_times,harm_other_reward_values,harm_other_trial_times,harm_other_punishment_reward_ratio,harm_other_prob_reject,harm_other_prob_accept,harm_other_SV,harm_self_acceptUp,harm_self_cue_times,harm_self_decision_times,harm_self_decisions,harm_self_punishment_values,harm_self_response_times,harm_self_reward_values,harm_self_trial_times,harm_self_punishment_reward_ratio,harm_self_prob_reject,harm_self_prob_accept,harm_self_SV,other_acceptUp,other_cue_times,other_decision_times,other_decisions,other_punishment_values,other_response_times,other_reward_values,other_trial_times,other_punishment_reward_ratio,other_prob_reject,other_prob_accept,other_SV
0,0,0.009018448181450367,2.1410015425644815,0,55,3.187506518792361,60,1.0435447860509157,0.9166666666666666,0.5511518081310167,0.4488481918689832,-0.2053255572243885,0,0.008448374923318624,1.124367902521044,0,78,2.168985673226416,34,1.0429719472303987,2.2941176470588234,1.0,1.3717438996912977e-19,-43.43303391703928,1,0.008767584338784218,1.4912513787858188,1,15,2.5373237635940313,56,1.0430952063761652,0.26785714285714285,0.027827708604652668,0.9721722913953473,3.553500806568497,0,0.008407683577388525,1.4746525045484304,0,22,2.502799795474857,31,1.0263588507659733,0.7096774193548387,0.9887077839146432,0.011292216085356747,-4.472285175396458
1,0,5.688349973410368,1.762596513144672,0,77,8.474759171251208,72,6.709049183875322,1.0694444444444444,0.9861782222081376,0.013821777791862413,-4.267591641885336,1,4.670885915867984,1.1124090175144374,0,88,6.8055297448299825,96,5.691314509604126,0.9166666666666666,1.0,5.228821237931555e-17,-37.48976071294162,0,5.037900947034359,1.4791344688273966,1,28,7.540443163365126,41,6.058657836169004,0.6829268292682927,0.6357314169529111,0.3642685830470888,-0.5568847126958989,0,5.004522655624896,1.2288575316779315,0,45,7.255822405684739,92,6.0252345078624785,0.4891304347826087,0.9901619818815315,0.009838018118468505,-4.611614267753261
2,1,10.975042429752648,1.4626074959523976,1,28,13.461185672320426,82,11.99571201018989,0.34146341463414637,5.9059610535427964e-09,0.999999994094039,18.947303642128745,1,9.307175568304956,0.6195236672647297,0,75,10.948699380736798,70,10.327896901872009,1.0714285714285714,0.9999999999999988,1.2198908001430475e-15,-34.340015048251075,1,10.041032989043742,1.9124750718474388,0,53,12.977307708002627,40,11.061705730389804,1.325,0.9940550622782854,0.005944937721714576,-5.119252545422507,0,9.75772304320708,0.7620339468121529,0,53,11.542083455715328,15,10.778293068520725,3.533333333333333,0.9999999892807716,1.0719228384515634e-08,-18.35122665223152
3,0,15.962101423181593,1.3459476241841912,0,86,18.32952929334715,59,16.982576634269208,1.4576271186440677,0.9999973412519212,2.6587480787644974e-06,-12.83765253428917,1,13.443279541563243,0.7772054662927985,0,55,15.242092463187873,95,14.464271096978337,0.5789473684210527,0.9999999348538426,6.514615735627282e-08,-16.546632451453558,1,15.477077387738973,1.4789199512451887,1,19,17.97993051679805,37,16.4986789165996,0.5135135135135135,0.36302445986046417,0.6369755401395358,0.562261041779396,0,14.043692933395505,0.7453473689965904,0,43,15.811467508319765,7,15.064454562962055,6.142857142857143,0.9999998494221043,1.5057789572349566e-07,-15.708785156519562
4,1,20.831586374901235,2.213011248037219,0,58,24.068240826018155,58,21.852385140024126,1.0,0.8967807615334046,0.10321923846659539,-2.161956164255323,1,17.745744009967893,0.6787602677941322,0,42,19.447253458201885,39,18.766811416950077,1.0769230769230769,0.9999999961404352,3.859564736084224e-09,-19.372711418640776,0,20.48147243913263,2.7632689070887864,1,54,24.2684185244143,80,21.502255402039737,0.675,0.6215112587157394,0.3784887412842606,-0.4959676993591854,1,18.31353723211214,0.912309936247766,0,53,20.248232102952898,40,19.334017973393202,1.325,0.9999996503444023,3.49655597738217e-07,-14.866316823721718
5,0,26.56882472615689,1.9795820731669664,0,87,29.57206382928416,85,27.589530257042497,1.0235294117647058,0.9609659400738344,0.039034059926165585,-3.2035043697336016,1,21.948886244557798,0.6953741540201008,0,53,23.66668562963605,55,22.96965735591948,0.9636363636363636,0.9999999999187139,8.128612698860851e-11,-23.233045753600628,0,26.768789091147482,1.646001826506108,0,60,29.438564096111804,70,27.789604449179024,0.8571428571428571,0.9406084366029642,0.05939156339703575,-2.7623747529267204,1,22.74945955676958,0.7454327023588121,0,12,24.517292205709964,9,23.770189976785332,1.3333333333333333,0.9777169341491642,0.02228306585083579,-3.7813931836499894
6,0,32.072441902477294,2.546513272449374,0,62,35.642789982724935,16,33.0932521247305,3.875,0.9999999978183308,2.1816691957974247e-09,-19.943175564806225,1,26.1684329835698,0.6286578676663339,0,69,27.81938413158059,61,27.189099403563887,1.1311475409836065,0.9999999999999906,9.488424463815292e-15,-32.28870381674458,0,31.938973774202168,1.6127989427186549,0,50,34.575364562217146,7,32.95957224396989,7.142857142857143,0.9998059069320622,0.00019409306793780864,-8.546978670390756,1,27.019092497881502,0.7286971369758248,0,88,28.770176149439067,96,28.039800399448723,0.9166666666666666,0.9999999983322043,1.6677956500918706e-09,-20.21176305078259
7,0,38.14332924084738,1.3289884547702968,0,12,40.49385403934866,3,39.163825389463454,4.0,0.9945420716666599,0.005457928333340138,-5.205213110111429,1,30.32121958397329,1.5126909329555929,0,24,32.85639421688393,69,31.34190141176805,0.34782608695652173,0.8658451002127293,0.13415489978727066,-1.8647109235535733,0,37.075516265351325,1.1291449777781963,0,71,39.22861140873283,64,38.09637903096154,1.109375,0.9956669995706579,0.00433300042934211,-5.43715262205646,1,31.272010021843016,2.046143495477736,1,28,34.340653414372355,82,32.29264799738303,0.34146341463414637,0.40555702688145445,0.5944429731185455,0.38236329026247845
8,0,42.99644050234929,1.395987999625504,0,71,45.41598044615239,69,44.01705082412809,1.0289855072463767,0.9549763857141119,0.045023614285888094,-3.0544994991345193,0,35.357868978753686,0.6450825203210115,0,28,37.02539253234863,18,36.37868433678523,1.5555555555555556,0.9999995373611033,4.6263889675842354e-07,-14.586318545125636,1,41.728871358558536,2.5966765116900206,1,15,45.349036999978125,42,42.74967407481745,0.35714285714285715,0.13317670330266584,0.8668232966973342,1.8731583032914358,1,36.842458052095026,0.7623227364383638,0,58,38.62693382240832,6,37.862853065598756,9.666666666666666,0.9999999995329574,4.670426609414096e-10,-21.484600510912593
9,0,47.91648059338331,1.3624639310874045,0,60,50.30262407287955,61,48.93710474204272,0.9836065573770492,0.8575200575366916,0.1424799424633084,-1.7948433343214885,0,39.527579984162,1.4122980847023427,0,15,41.96242813859135,42,40.54832581151277,0.35714285714285715,0.8140986147377633,0.18590138526223662,-1.4768651606388317,1,47.84956796141341,1.3291516150347888,0,56,50.20092396810651,46,48.87015774007887,1.2173913043478262,0.9928409057401455,0.007159094259854448,-4.9321869624885855,1,41.12843742361292,2.2798768673092127,1,10,44.43064747285098,44,42.14913426339626,0.22727272727272727,0.1359899864596238,0.8640100135403762,1.8490031044307491
10,1,52.802992664743215,1.4292331556789577,1,24,55.25518003711477,69,53.82367212185636,0.34782608695652173,1.8315938388191455e-07,0.9999998168406161,15.51290892982822,1,44.46263870596886,1.1456158524379134,0,41,46.61542609659955,7,45.4680972606875,5.857142857142857,0.999999999987512,1.2488062568002873e-11,-25.10624792246541,0,52.702847914304584,1.6295036929659545,1,7,55.35580755164847,54,53.72340174205601,0.12962962962962962,0.008705973780414822,0.9912940262195852,4.735001755355105,0,46.93233319744468,1.3958627651445568,1,7,49.35069111920893,54,47.95312169101089,0.12962962962962962,0.012490092148680132,0.9875099078513199,4.370250828085185
11,1,57.75576986325905,1.3289370965212584,1,43,60.10887401364744,97,58.77719638030976,0.44329896907216493,6.791380569026728e-09,0.9999999932086194,18.80761158538937,1,49.117094833403826,0.6116212662309408,0,25,50.75141945341602,37,50.13813103036955,0.6756756756756757,0.999860819581433,0.0001391804185669928,-8.87960030106815,0,57.856282809749246,1.2786778579466045,0,86,60.158754784148186,59,58.87723051337525,1.4576271186440677,0.9998338877995456,0.0001661122004543387,-8.7026809655795,1,51.852340498007834,1.2956682373769581,0,52,54.17051495378837,68,52.87316573271528,0.7647058823529411,0.9999747701258113,2.522987418868851e-05,-10.587456551707234
12,1,62.60954285180196,1.9294705870561302,0,12,65.56283204862848,9,63.63033569138497,1.3333333333333333,0.9473888963869115,0.05261110361308855,-2.8907824775591067,0,53.25319564668462,0.4952391227707267,0,77,54.77093861717731,72,54.273877474013716,1.0694444444444444,0.9999999999999994,5.044920395320802e-16,-35.22297961314916,0,62.65963023900986,0.7787738577462733,0,45,64.4616881897673,42,63.68022594321519,1.0714285714285714,0.969458573573371,0.03054142642662907,-3.457653738556745,0,56.67221173970029,0.6788554773665965,0,68,58.373290966730565,63,57.692735543008894,1.0793650793650793,0.9999999692267113,3.0773288691601885e-08,-17.296618742745345
13,1,68.06315718404949,1.8625646717846394,0,46,70.94938086112961,36,69.08410172676668,1.2777777777777777,0.9972886319321277,0.0027113680678722673,-5.90758689889321,0,57.272567057516426,0.7119588060304523,0,45,59.007021020166576,42,58.29328127996996,1.0714285714285714,0.9999999989735486,1.0264513578377916e-09,-20.697158265987905,0,66.96238191658631,1.0124696986749768,0,96,68.9983407445252,89,67.9829353489913,1.0786516853932584,0.9989717666459612,0.0010282333540387793,-6.8788843772685295,0,60.875026863999665,0.6780282203108072,0,28,62.574816217646,41,61.89569446910173,0.6829268292682927,0.9951931211706914,0.004806878829308655,-5.332888828493593
14,1,73.45017493329942,1.8794645820744336,0,62,76.35331708844751,43,74.4708397728391,1.441860465116279,0.9999272375464264,7.276245357352017e-05,-9.528237718320774,0,61.50871188053861,0.6954464507289231,0,71,63.226520746946335,69,62.52933760918677,1.0289855072463767,0.999999999999987,1.2965253087735367e-14,-31.97650345526712,1,71.4986196574755,1.5625302218832076,0,58,74.08480730513111,58,72.5194298797287,1.0,0.9791081066790973,0.020891893320902705,-3.847280857707652,0,65.07808613590896,1.07900030631572,0,6,67.17926396988332,26,66.09850090229884,0.23076923076923078,0.3009216097252658,0.6990783902747342,0.8429130842377304
15,0,78.85376311233267,2.0633302200585604,1,15,81.94053821545094,42,79.87437145831063,0.35714285714285715,0.0001744963412599887,0.99982550365874,8.653432271965553,1,65.72838148334995,0.7628292040899396,0,82,67.51310456125066,40,66.74815664626658,2.05,1.0,3.494279217134256e-20,-44.800574738043615,0,76.58526952611282,0.9954323070123792,0,78,78.60466859163716,65,77.60614967439324,1.2,0.9985875052247957,0.0014124947752043385,-6.560984300634578,0,69.6809014971368,0.7288369885645807,0,28,71.43192154401913,18,70.70145374443382,1.5555555555555556,0.9998043535856389,0.0001956464143611032,-8.53900587072261
16,0,84.44080725172535,1.4619473493658006,0,50,86.92629548348486,7,85.46186162158847,7.142857142857143,0.9999999922394033,7.76059676236616e-09,-18.67420659558075,0,70.0141352750361,0.76210742816329,0,54,71.79905548878014,80,71.0351513242349,0.675,0.9999999937698681,6.230131874107391e-09,-18.893868330547466,0,81.10492419591174,0.7953656208701432,0,68,82.92330803349614,63,82.1257786648348,1.0793650793650793,0.9934654505308326,0.006534549469167468,-5.02409588239143,1,73.9336151694879,1.2792309429496527,0,98,76.23542660241947,73,74.95449650287628,1.3424657534246576,0.999999999998423,1.5770064248677952e-12,-27.1754927338467
17,0,89.42714249389246,1.6459544193930924,0,53,92.09703838732094,57,90.44817790063098,0.9298245614035088,0.6393256296703386,0.36067437032966143,-0.5724383871582261,1,74.30052827531472,1.145616642665118,0,58,76.46866180282086,6,75.32136615179479,9.666666666666666,0.9999999999999998,1.9048818481351493e-16,-36.19694150322581,1,85.42476699315012,0.9120160113088787,0,32,87.36122067458928,16,86.44561593141407,2.0,0.9861874829059064,0.013812517094093537,-4.268271264603737,0,78.7369791911915,0.677584171295166,0,86,80.43665397726,59,79.75785894412547,1.4576271186440677,0.9999999999796493,2.0350674312685284e-11,-24.61790706881008
18,0,94.59739907784387,2.2131748031824827,0,28,97.83459081221372,18,95.6181990285404,1.5555555555555556,0.9967953941345827,0.0032046058654172207,-5.739956419469236,0,78.97043602075428,0.7453137887641788,0,60,80.73836150905117,70,79.99114668741822,0.8571428571428571,0.9999999999818049,1.8195105336067056e-11,-24.729868495576532,0,89.8611282305792,1.846401154063642,1,22,92.73088774923235,31,90.8815821078606,0.7096774193548387,0.666181994956873,0.3338180050431269,-0.6909669495241614,1,82.93980379682034,1.229033728595823,0,40,85.19134374381974,93,83.96049550082535,0.43010752688172044,0.9304363529340541,0.06956364706594582,-2.5934115541953204
19,1,100.33476700913161,1.7291048392653465,1,37,103.087257867679,54,101.35550019470975,0.6851851851851852,0.010039217186185945,0.989960782813814,4.591166187304216,1,83.2398639251478,0.961860831361264,0,43,85.22444628272206,93,84.26094950502738,0.46236559139784944,0.9999045586813732,9.544131862679744e-05,-9.256903518105782,1,95.23128399485722,1.429180612321943,0,41,97.68427492119372,7,96.25195910641924,5.857142857142857,0.9990401133999451,0.0009598866000548886,-6.9477350578363,1,87.69295045593753,0.6621124055236578,0,50,89.37730636494234,62,88.71364334551618,0.8064516129032258,0.9999768226618369,2.3177338163113744e-05,-10.672312382382566
20,1,112.6145364199765,2.262000761460513,0,82,115.8965675542131,40,113.6314971698448,2.05,0.9999999915278194,8.472180643222378e-09,-18.5864778980202,0,94.7525694752112,0.9278468871489167,0,35,96.69882105942816,62,95.7693105712533,0.5645161290322581,0.9999665862886877,3.3413711312286924e-05,-10.30651080961971,1,107.20715170633048,1.6283516958355904,0,52,109.85898779099807,68,108.22764785541221,0.7647058823529411,0.8293282343557216,0.17067176564427844,-1.5808738041401194,1,98.90549829788506,0.8610986010171473,0,43,100.78487083083019,93,99.92211534501985,0.46236559139784944,0.9763554795532652,0.0236445204467348,-3.720695346445849
21,0,118.39680182514712,2.3462905371561646,1,59,121.76698603387922,65,119.41759782517329,0.9076923076923077,0.46427058683444855,0.5357294131655514,0.14316166388455823,0,99.20069641293958,0.9286749344319105,0,62,101.15194907179102,16,100.22143433941528,3.875,0.9999999999999999,1.0764362121988157e-16,-36.76770570664643,1,112.35939667886123,1.1453400999307632,0,55,114.5285174632445,95,113.38028235780075,0.5789473684210527,0.24476959530993048,0.7552304046900695,1.1267055337093896,0,103.28658381430432,0.6784537006169558,0,14,104.98737425217405,7,104.3074043081142,2.0,0.9919316763691248,0.0080683236308752,-4.811708498097792
22,0,124.26746721798554,1.779501955024898,0,87,127.07061356119812,76,125.2880609468557,1.144736842105263,0.9987397074544299,0.0012602925455701569,-6.675150318562086,1,103.65350956190377,1.6624162076041102,1,28,106.33838181523606,82,104.67424235213548,0.34146341463414637,0.8626992858093137,0.13730071419068637,-1.8378926637864246,0,117.02942768344656,1.2790101040154696,1,7,119.33127743704244,54,118.04976580804214,0.12962962962962962,0.008705973780414822,0.9912940262195852,4.735001755355105,0,107.48949572863057,0.661949245724827,0,51,109.17384413117543,7,108.5102281239815,7.285714285714286,0.9999999925486848,7.451315249059805e-09,-18.714875269187637
23,1,129.57101059751585,1.8294562064111233,0,45,132.42417440237477,40,130.59164699306712,1.125,0.9814685721711209,0.018531427828879097,-3.9695819006871647,0,108.84045469900593,0.928765008226037,0,45,110.79160898784176,92,109.86116615636274,0.4891304347826087,0.9999782842393148,2.171576068519932e-05,-10.737450546191647,1,121.83238953305408,0.9456127709709108,0,72,123.8017557291314,51,122.85303540993482,1.411764705882353,0.9992352254417672,0.0007647745582327382,-7.175164395542001,0,111.67556778108701,0.7455259365960956,0,78,113.44365129387006,34,112.69659133628011,2.2941176470588234,0.9999999999873924,1.2607530967782212e-11,-25.096726784651803
24,0,134.9246247713454,1.3290058374404907,0,9,137.27712803473696,7,135.9453010680154,1.2857142857142858,0.9225211727986975,0.07747882720130256,-2.477105625563058,0,113.29355703247711,1.391906626522541,1,7,115.71148631349206,54,114.31793070305139,0.12962962962962962,0.0023785657810803107,0.9976214342189197,6.038876186872083,1,126.3020883705467,0.8783358936198056,0,42,128.2045028237626,67,127.3230992835015,0.6268656716417911,0.48099938449942403,0.519000615500576,0.07603907862281924,0,115.94521652488038,0.7286283960565925,0,15,117.6961717819795,42,116.96592561155558,0.35714285714285715,0.5765425242706179,0.423457475729382,-0.30859600226758077
25,1,139.77772773709148,1.7293106662109494,1,17,142.5308459517546,82,140.79847790999338,0.2073170731707317,7.656608680406407e-11,0.9999999999234339,23.29286686815719,1,118.21322616096586,1.1621420355513692,0,15,120.39780685957521,56,119.23396053165197,0.26785714285714285,0.21217693521648318,0.7878230647835168,1.3118530009041207,0,130.70475210715085,1.3457927606068552,0,53,133.07447725581005,57,131.72587245237082,0.9298245614035088,0.9560112873112994,0.04398871268870061,-3.07883664858608,1,120.19793730834499,1.0456757433712482,0,32,122.26606317143887,16,121.2186108394526,2.0,0.9999670617727466,3.293822725338904e-05,-10.320843713337432
26,1,145.03128407429904,0.8781774737872183,1,40,146.93341921968386,93,146.05234160460532,0.43010752688172044,9.712893711544268e-09,0.9999999902871063,18.449811575780203,0,122.89977939799428,0.7786253150552511,0,86,124.70090895565227,59,123.92059001512825,1.4576271186440677,1.0,1.1859275547034715e-19,-43.57859155190091,1,135.57491972390562,2.162810083013028,0,12,138.761384466663,9,136.59571256348863,1.3333333333333333,0.8255724883564122,0.1744275116435878,-1.5545678216768106,0,124.76763195823878,0.6788617982529104,0,62,126.46847612410784,17,125.78827427932993,3.6470588235294117,0.999999999518582,4.814179793720964e-10,-21.45428524270232
27,0,149.43435235321522,1.4458565232343972,0,71,151.90359805570915,64,150.45491171209142,1.109375,0.9931944748946876,0.006805525105312367,-4.983191692928121,0,127.20264761848375,0.7788564255461097,0,45,129.00380917591974,60,128.22318090312183,0.75,0.9999999629746685,3.702533148282714e-08,-17.111663486861254,0,141.26212086016312,1.0287825488485396,0,60,143.31463589612395,61,142.28284219373018,0.9836065573770492,0.979012038620404,0.02098796137959602,-3.84259493360483,0,128.97068253858015,0.7620813543908298,0,9,130.75502714840695,7,129.99115814408287,1.2857142857142858,0.9494491482589212,0.050550851741078734,-2.932902177680246
28,0,154.40419262228534,0.9787046434357762,0,58,156.40652585122734,58,155.42498269677162,1.0,0.8967807615334046,0.10321923846659539,-2.161956164255323,1,131.5055754929781,0.8119913595728576,0,15,133.34000037936494,19,132.52623717207462,0.7894736842105263,0.997667153966295,0.0023328460337050136,-6.058330711745111,0,145.81506967311725,0.8786756456829607,0,53,147.7174833365716,15,146.835885821376,3.533333333333333,0.9997025194410653,0.0002974805589347651,-8.119864158417254,1,133.25677252700552,0.8617642782628536,0,75,135.14120578859,70,134.27766847750172,1.0714285714285714,0.9999999941168461,5.883153876782464e-09,-18.951172839347166
29,1,158.9072097018361,1.9297522651031613,0,6,161.86038077576086,8,159.92765844333917,0.75,0.7122246944785506,0.28777530552144936,-0.9062134572908483,0,135.84162210393697,0.5117123671807349,0,96,137.37596908397973,89,136.86251054797322,1.0786516853932584,1.0,7.707320345123802e-20,-44.00953128847284,0,150.2179530635476,0.7948476960882545,0,43,152.03635467914864,7,151.23888693982735,6.142857142857143,0.9993270205295492,0.000672979470450765,-7.303122527292845,1,137.64299817942083,1.2121875463053584,1,14,139.8775457716547,57,138.6636839574203,0.24561403508771928,0.1035756948695109,0.8964243051304891,2.1581111589218076
30,0,164.3608426018618,2.1626259847544134,1,45,167.54685974121094,60,165.3816666509956,0.75,0.02308567018496621,0.9769143298150338,3.745186874487243,0,139.8776733763516,0.5619889888912439,0,62,141.46219702763483,17,140.8984227590263,3.6470588235294117,0.9999999999999999,1.3137030900374083e-16,-36.568511552250506,1,154.53748336806893,1.1957960790023208,1,14,156.75704353908077,57,155.55815492384136,0.24561403508771928,0.020811488650329113,0.9791885113496709,3.85121900581656,0,142.37951080407947,0.7452794187702239,0,45,144.1471542189829,60,143.40018077986315,0.75,0.9998852108561112,0.00011478914388885745,-9.072298848245804
31,1,170.04804926924407,1.5292846714146435,1,15,172.60090761305764,56,171.0685849240981,0.26785714285714285,7.879972770963306e-07,0.9999992120027229,14.053770414558423,0,143.96381954243407,0.6119807716459036,0,37,145.59832470491529,52,144.98451480222866,0.7115384615384616,0.9999987342003398,1.2657996601781146e-06,-13.579805227268903,1,159.25740027893335,1.0789659363217652,0,46,161.36002443078905,40,160.2780777607113,1.15,0.9796755410737709,0.020324458926229173,-3.875396402324597,0,146.64896557247266,0.8621182525530457,0,62,148.534025400877,16,147.67011989280581,3.875,0.9999999995812227,4.187773856914646e-10,-21.59368163584271
32,0,175.10139353759587,1.3957343706861138,0,60,177.52089318539947,40,176.12213304406032,1.5,0.999949594030906,5.040596909404335e-05,-9.895350548254612,1,148.0997820845805,0.7620758232660592,0,94,149.8840694106184,46,149.12051092414185,2.0434782608695654,1.0,5.290591662374379e-23,-51.293527053807686,0,163.86027568904683,0.8952535814605653,0,87,165.77911953581497,76,164.88109855353832,1.144736842105263,0.9989309965063072,0.0010690034936927182,-6.839958803471345,0,151.03526194114238,0.8282508761622012,0,95,152.88643424445763,16,152.0563550265506,5.9375,0.9999999999999982,1.7245618949977944e-15,-33.99380335059852
33,0,180.02145259128883,1.545836138073355,0,96,182.59094575978816,89,181.0421063695103,1.0786516853932584,0.9946003765393752,0.005399623460624881,-5.216011803239192,0,152.38618733128533,0.6285500163212419,0,60,154.03700652951375,61,153.40686244284734,0.9836065573770492,0.9999999999969704,3.0295231496575052e-12,-26.522615885139857,1,168.28010126203299,1.0792511701583862,0,14,170.3820707979612,8,169.3004800779745,1.75,0.8839090005961865,0.11609099940381352,-2.0299797556531463,0,155.38822031440213,0.7451387769542634,0,87,157.155992123764,76,156.4091759189032,1.144736842105263,0.9999999998505307,1.494693666183954e-10,-22.623929649506923
34,1,185.09135543787852,1.2620406625792384,1,15,187.3772182664834,42,186.11237069685012,0.35714285714285715,0.0001744963412599887,0.99982550365874,8.653432271965553,1,156.53887911746278,0.8638035818003118,0,53,158.42492462228984,40,157.55963758705184,1.325,0.9999999999959038,4.096213647392871e-12,-26.220958069539506,0,172.88163070054725,1.430467720143497,1,6,175.31933672446758,26,173.88588787568733,0.23076923076923078,0.1747960815404257,0.8252039184595743,1.552010483529253,1,159.65772920614108,1.2290673088282347,1,17,161.90925967181101,82,160.6783960214816,0.2073170731707317,0.010817248072144237,0.9891827519278558,4.515737195181072
35,1,189.87775357393548,1.228778124321252,1,25,192.13047396251932,37,190.89886917825788,0.6756756756756757,0.058732858702946644,0.9412671412970534,2.7742276464599382,0,160.92517588101327,0.6473525399342179,0,53,162.59286694042385,57,161.94387331837788,0.9298245614035088,0.9999999998789306,1.210693680500343e-10,-22.834657444808776,0,177.81980250123888,0.761738836299628,0,80,179.6047487887554,60,178.84044995857403,1.3333333333333333,0.9994562592468047,0.000543740753195265,-7.516494092690074,0,164.41092366771773,0.5786167029291391,0,40,166.01186051499099,15,165.43155611259863,2.6666666666666665,0.9999985820971399,1.417902860124317e-06,-13.466330219145897
36,1,194.63114042999223,1.062205086927861,1,15,196.71690575778484,19,195.65184793667868,0.7894736842105263,0.5544215073112791,0.44557849268872085,-0.21855181948539462,1,165.0945945410058,0.6317069469951093,0,42,166.7440333967097,67,166.1114292666316,0.6268656716417911,0.9999989795594539,1.0204405460758841e-06,-13.79527509555487,0,182.10595885990188,0.9955354179255664,0,78,184.12477086484432,34,183.12661421857774,2.2941176470588234,0.9999657483888315,3.425161116851926e-05,-10.281742700748064,0,168.51355018978938,0.6454040994867682,0,60,170.1812527058646,70,169.53424781979993,0.8571428571428571,0.9999983500334254,1.6499665746209552e-06,-13.314753878094523
37,0,199.2175263981335,1.1621297881938517,0,41,201.40351390792057,22,200.23834926215932,1.8636363636363635,0.9999115220604383,8.84779395616352e-05,-9.332668825659475,1,169.24751901812851,1.0288635366596282,1,17,171.29876511869952,82,170.2681198581122,0.2073170731707317,0.005434447554990007,0.99456555244501,5.209548141508235,0,186.62569728214294,0.8788763363845646,0,56,188.52782492153347,59,187.64631669037044,0.9491525423728814,0.9668137078511747,0.03318629214882534,-3.3718689237313173,1,172.68285072688013,1.0074180564843118,0,19,174.71761054592207,37,173.70855219708756,0.5135135135135135,0.924744119457014,0.07525588054298607,-2.508623024303578
38,0,203.90384812932462,0.8288979860953987,0,40,205.75626803468913,15,204.9245753888972,2.6666666666666665,0.9999911738837859,8.826116214140443e-06,-11.637786653799354,0,173.8004018557258,0.6285346089862287,0,55,175.45115626370534,60,174.82101454772055,0.9166666666666666,0.999999999938895,6.110497339895472e-11,-23.51842785531094,1,191.02853326592594,1.2623499953188002,0,58,193.3145051309839,6,192.04935059929267,9.666666666666666,0.999958449232469,4.15507675309589e-05,-10.088553012736725,0,177.21942071430385,0.8283784808591008,0,35,179.07063449919224,62,178.24054935574532,0.5645161290322581,0.9935415942053694,0.006458405794630607,-5.035893421129927
39,1,208.2568100579083,1.4626734708435833,1,55,210.74308604141697,95,209.2774796388112,0.5789473684210527,1.682009276415819e-06,0.9999983179907236,13.29551979930756,0,177.95325601194054,0.6272937227040529,0,56,179.6028611883521,59,178.97465329477564,0.9491525423728814,0.9999999999736169,2.6383074031066178e-11,-24.358298446551835,1,195.81528142560273,1.196096720173955,0,50,198.0350857442245,62,196.83574241399765,0.8064516129032258,0.8749696969963626,0.1250303030036374,-1.9456331218023122,1,181.57228901376948,0.8115911623463035,0,56,183.40674076415598,46,182.59349074121565,1.2173913043478262,0.9999997386022174,2.613977826129555e-07,-15.157222257129893
40,1,220.26662731869146,1.9964029714465141,1,53,223.2836560192518,55,221.28435132605955,0.9636363636363636,0.7931330679695785,0.2068669320304215,-1.343915264675666,1,189.11442659283057,1.2449384811334312,1,14,191.37868986791,57,190.13216126710176,0.24561403508771928,0.10417026975541754,0.8958297302445825,2.1517235921450144,1,207.56024716608226,1.2782073402777314,0,42,209.85918690171093,39,208.57793206209317,1.0769230769230769,0.9638983032172541,0.036101696782745926,-3.2846459279312965,0,192.93362820660695,1.594601257238537,1,7,195.54819030547515,54,193.95195665676147,0.12962962962962962,0.012490092148680132,0.9875099078513199,4.370250828085185
41,0,225.78534016339108,0.9558175862766802,0,78,227.76986049627885,34,226.81233506230637,2.2941176470588234,0.9999999959343961,4.065603827394938e-09,-19.32070355788787,1,193.8806501594372,0.6953745493665338,0,37,195.59826663136482,54,194.90113366628066,0.6851851851851852,0.9999981146909604,1.8853090395563156e-06,-13.181416918477051,1,212.3595693204552,0.6785504906438291,0,46,214.06114434916526,36,213.3801334197633,1.2777777777777777,0.9873265835175409,0.012673416482459132,-4.3554942604037565,1,198.05007869610563,0.9956748746335506,1,4,200.06800260394812,22,199.07059341296554,0.18181818181818182,0.2617582379733898,0.7382417620266102,1.036850039843181
42,1,230.27170661557466,1.179003625176847,0,66,232.4743937398307,59,231.29229836910963,1.11864406779661,0.9928724006117544,0.007127599388245571,-4.936627670865907,0,198.10004163952544,0.7453295914456248,0,51,199.8675799681805,7,199.1205836152658,7.285714285714286,0.9999999999999793,2.0609746685967453e-14,-31.513012290915103,1,216.56234177807346,0.8619420556351542,0,62,218.44747153203934,43,217.58307101298124,1.441860465116279,0.9982708984878973,0.0017291015121026919,-6.358422764417592,0,202.56973573565483,0.7119655222631991,0,12,204.30407118052244,3,203.5904246745631,4.0,0.9902217806549553,0.009778219345044735,-4.617771542492342
43,1,234.9746809490025,1.1789340944960713,1,42,237.1775569128804,67,235.99546786257997,0.6268656716417911,0.00048517788021940067,0.9995148221197806,7.630509675311963,1,202.36932692676783,0.6617888510227203,0,74,204.05383769934997,60,203.39032203750685,1.2333333333333334,0.9999999999999997,3.158449783984928e-16,-35.691280155365355,1,220.94855123292655,1.0125645133666694,1,26,222.985095936805,84,221.96928125806153,0.30952380952380953,0.006967169151225416,0.9930328308487746,4.959554731111609,1,206.80586989223957,0.6454617786221206,0,6,208.47358465520665,8,207.82640080619603,0.75,0.8410714643957353,0.1589285356042647,-1.6662219922893262
44,1,239.67769439378753,1.095874142833054,0,87,241.7968075927347,89,240.69857296161354,0.9775280898876404,0.8403119026817959,0.1596880973182041,-1.660550614698722,1,206.5555814979598,0.7953936704434454,0,19,208.3733332385309,37,207.5763115226291,0.5135135135135135,0.9935393367980231,0.006460663201976964,-5.035541679998334,1,225.48473011050373,0.828726134262979,0,69,227.33762527396902,61,226.5056912456639,1.1311475409836065,0.9956871688209096,0.004312831179090446,-5.441838546159283,0,210.9751542317681,0.6115770190954208,0,59,212.6096333200112,65,211.99639388499781,0.9076923076923077,0.9999988033394749,1.1966605250994778e-06,-13.635974579712974
45,0,244.2975530726835,1.2624373040162027,0,62,246.5830583712086,17,245.31819144356996,3.6470588235294117,0.9999999967914193,3.208580757298963e-09,-19.557437126047503,1,210.87531130760908,1.0288437833078206,0,26,212.92648787796497,84,211.89588251849636,0.30952380952380953,0.5394556661860959,0.4605443338139041,-0.15815148130463663,1,229.83783663157374,0.9457826470024884,1,28,231.80727235833183,82,230.85839875554666,0.34146341463414637,0.01256595747135325,0.9874340425286467,4.364118332615477,1,215.1162023912184,0.6450856807641685,0,72,216.7790053631179,51,216.1322149951011,1.411764705882353,0.9999999987148888,1.285111286525458e-09,-20.472420516764085
46,1,249.0841317512095,1.3121572849340737,1,4,251.41984493099153,22,250.1050632572733,0.18181818181818182,0.005045364856591461,0.9949546351434085,5.284227171673555,1,215.4282265403308,0.6116267973557115,0,97,217.06236745696515,61,216.44917463883758,1.5901639344262295,1.0,1.5360712148191871e-22,-50.22764404840372,0,234.3075279626064,0.8118072608485818,0,59,236.14320321613923,65,235.32853848068044,0.9076923076923077,0.960258378014822,0.039741621985178055,-3.184803340797398,1,219.2808862477541,0.7287398031912744,0,45,221.0321180471219,40,220.301550692413,1.125,0.999992934125547,7.065874452952073e-06,-11.860226711053645
47,0,253.92059989226982,0.7788603757508099,0,51,255.72342228563502,7,254.9413777193986,7.285714285714286,0.9999999947721088,5.227891244117032e-09,-19.069257838751913,0,219.5645059212111,1.1955546969547868,1,6,221.78226817026734,26,220.58515614364296,0.23076923076923078,0.2493435734601931,0.7506564265398069,1.1021163006310861,0,238.64373101759702,0.795605817809701,0,51,240.46311040828004,7,239.6644314127043,7.285714285714286,0.9998375003837832,0.0001624996162168491,-8.724672405119028,1,223.53370579658076,0.6453377292491496,0,53,225.2014837693423,55,224.55432559968904,0.9636363636363636,0.9999971703959174,2.8296040826381578e-06,-12.775370926615837
48,0,258.22354277875274,1.7647875207476318,0,45,261.01367779495195,42,259.2442084089853,1.0714285714285714,0.9607629035658665,0.03923709643413349,-3.198105023169725,0,224.28418737556785,0.5620352108962834,0,50,225.86839576857165,7,225.30473646288738,7.142857142857143,0.9999999999999609,3.911243866560569e-14,-30.872335854070133,0,242.96332532167435,1.295558805577457,0,12,245.28186402330175,23,243.9841225068085,0.5217391304347826,0.4685977154591412,0.5314022845408588,0.12577468160024716,1,227.7076313099824,0.6614791234023869,0,46,229.38760125404224,36,228.7243664804846,1.2777777777777777,0.9999972214360439,2.7785639561376446e-06,-12.79357354769872
49,1,263.5265326779336,1.329078923445195,1,50,265.8799007292837,62,264.547867145855,0.8064516129032258,0.07300585973137363,0.9269941402686264,2.5414075361488653,1,228.3701877645217,0.4952339865267277,0,33,229.88767710560933,25,229.39086524629965,1.32,0.9999999242132017,7.578679830063651e-08,-16.395341648579006,1,247.78310846490785,1.2958325827494264,0,16,250.10237289313227,10,248.80378199601546,1.6,0.8952304782446544,0.10476952175534557,-2.145318296070112,1,231.88916371949017,1.4958648984320462,0,43,234.40768100880086,97,232.91018687933683,0.44329896907216493,0.9594221869444619,0.040577813055538106,-3.1631097738842815
50,0,268.38025865424424,1.7127568288706243,0,62,271.1168040689081,17,269.40098591381684,3.6470588235294117,0.9999999967914193,3.208580757298963e-09,-19.557437126047503,1,232.38953942246735,0.6456612846814096,0,46,234.05737349344417,40,233.4099909295328,1.15,0.9999999996368565,3.631435112532813e-10,-21.736223011624723,1,252.60364301363006,1.5460992488078773,0,88,255.17263010935858,96,253.62361254636198,0.9166666666666666,0.9902158890205939,0.00978411097940618,-4.617163247803821,1,236.90926757315174,1.1288008796982467,0,15,239.0604849923402,42,237.93004026450217,0.35714285714285715,0.5765425242706179,0.423457475729382,-0.30859600226758077
51,1,273.6170430807397,1.4459379059262574,0,42,276.08675416512415,39,274.63785527832806,1.0769230769230769,0.959696029469848,0.040303970530152035,-3.1701666099323953,1,236.55898771202192,0.5620233588851988,0,98,238.14330632705241,73,237.5796549222432,1.3424657534246576,1.0,8.836416431173172e-22,-48.47799063249759,0,257.6730994414538,1.162339961156249,0,87,259.85907351924106,85,258.69386739237234,1.0235294117647058,0.9968579681463821,0.0031420318536179025,-5.759738622793235,1,241.56239471631125,0.7288606921210885,0,37,243.31366009591147,54,242.58299871673808,0.6851851851851852,0.9989958278127036,0.001004172187296384,-6.902587094420081
52,0,278.58707455918193,1.8627969669178128,1,24,281.4736668281257,90,279.6078393496573,0.26666666666666666,5.556777260551371e-11,0.9999999999444322,23.61341771206374,1,240.64506987808272,0.6286061150021851,0,45,242.2960123354569,40,241.66583585366607,1.125,0.9999999993108393,6.891607413955764e-10,-21.095546574779753,0,262.35956576513126,1.3957316051237285,1,45,264.7787169688381,92,263.3802736666985,0.4891304347826087,0.07285968250631425,0.9271403174936858,2.5435694874327464,1,245.81510562309995,0.7989768711850047,0,74,247.63315721508116,60,246.83227417524904,1.2333333333333334,0.9999999978747481,2.125251882203539e-09,-19.96937550666757
53,1,283.97404569154605,1.862842399161309,0,72,286.86063717026263,51,284.99465245753527,1.411764705882353,0.9999693498588562,3.065014114383663e-05,-10.392842639962648,0,244.8026604182087,0.6786658479832113,0,14,246.49890805175528,7,245.81850077584386,2.0,0.9995936885286559,0.0004063114713440599,-7.807984127651245,0,267.27953790547326,1.0289314868859947,0,71,269.33101314119995,69,268.30025173258036,1.0289855072463767,0.9921318285531697,0.007868171446830234,-4.837030299457511,0,250.1347623472102,0.5952657498419285,0,60,251.75247940141708,40,251.15552871767431,1.5,0.9999999748056405,2.519435948354812e-08,-17.496645672306283
54,0,289.3608070462942,1.3291693925857544,1,14,291.7139578140341,57,290.3817093176767,0.24561403508771928,3.6093770450218443e-07,0.9999996390622955,14.834560096272451,1,249.00064868992195,0.5950563671067357,0,87,250.617791720666,89,250.02124202344567,0.9775280898876404,1.0,2.4608411540286802e-17,-38.24344335686813,0,271.83288375427946,1.2123380647972226,0,62,274.06733455648646,16,272.85332380468026,3.875,0.9999322137438356,6.778625616443514e-05,-9.599083306451918,1,254.25425717514008,0.8122797538526356,0,16,256.08865914773196,10,255.27470236085355,1.6,0.994205540976757,0.005794459023243015,-5.145041846843634
55,1,294.21424739342183,1.3621628945693374,1,88,296.60055916942656,96,295.23514966527,0.9166666666666666,0.3442148455409584,0.6557851544590416,0.6445672134411492,0,253.12001156713814,0.5618771868757904,0,38,254.70420494815335,43,254.1407581847161,0.8837209302325582,0.9999998889437675,1.1105623250883426e-07,-16.013229053677193,1,276.569050305523,0.9949388764798641,0,25,278.5871120900847,37,277.5904697114602,0.6756756756756757,0.6233757278543607,0.3766242721456393,-0.5039013665902409,1,258.5904550938867,0.6620191712863743,0,97,260.27487342245877,61,259.61117642745376,1.5901639344262295,0.9999999999995689,4.3107763757328785e-13,-28.472488187447897
56,1,299.1009688475169,2.5801353161223233,0,74,302.70469008293003,60,300.12150094658136,1.2333333333333334,0.9995524609747,0.00044753902530005984,-7.711299177476492,1,257.2061032149941,0.9618687322363257,0,58,259.19049673341215,58,258.2269102768041,1.0,0.9999999999939975,6.0024975520103705e-12,-25.8388454746377,1,281.08875751821324,1.5128031303174794,0,6,283.6237729410641,8,282.10931885195896,0.75,0.647582552844001,0.352417447155999,-0.6084298778269644,1,262.77655006060377,0.6286582630127668,0,82,264.42792510893196,40,263.7973081348464,2.05,0.9999999999935271,6.4729220281046954e-12,-25.76339348214349
57,0,305.2049128971994,1.9962018853984773,1,54,308.22473072679713,80,306.2256610947661,0.675,0.00036894481645333155,0.9996310551835467,7.904494461120923,1,261.6924518896267,1.2625412051565945,0,15,263.97708607884124,42,262.71300255693495,0.35714285714285715,0.8140986147377633,0.18590138526223662,-1.4768651606388317,0,286.125437727198,0.9621705585159361,0,28,288.1099383071996,18,287.14613061677665,1.5555555555555556,0.9650225329826784,0.0349774670173216,-3.3174473966510654,1,266.9293105872348,0.9620476947166026,0,41,268.91409561084583,7,267.9501117230393,5.857142857142857,0.9999996807409349,3.192590650479542e-07,-14.957262628352543
58,0,310.72520559001714,1.2788568204268813,1,7,313.02780279843137,54,311.74599566403776,0.12962962962962962,7.228107101742154e-08,0.999999927718929,16.442703481433192,0,266.4788022232242,0.611911240965128,0,78,268.11317780567333,65,267.49969698814675,1.2,0.9999999999999999,6.592492160782958e-17,-37.2580151307656,1,290.6117856116034,1.3791323360055685,1,4,293.01329577108845,22,291.63254171051085,0.18181818181818182,0.1935197093255907,0.8064802906744093,1.4273000949066383,1,271.415487410035,0.5943784429691732,0,46,273.03342806873843,40,272.43730977829546,1.15,0.9999951473850228,4.852614977173293e-06,-12.235987975137153
59,0,315.5284688710235,1.128937175963074,1,22,317.6809915713966,31,316.54915662435815,0.7096774193548387,0.16179253929435566,0.8382074607056443,1.6449507434211068,1,270.61512427031994,0.9456024994142354,0,6,272.5829995069653,8,271.6357314311899,0.75,0.9229683436935932,0.07703165630640679,-2.483378478495567,0,295.51499255700037,1.5291558816097677,1,60,298.06658315099776,40,296.5357055943459,1.5,0.9982789680603259,0.0017210319396741263,-6.363108688520416,0,275.53496762085706,1.4458387456834316,1,14,278.0034145102836,57,276.555816559121,0.24561403508771928,0.1035756948695109,0.8964243051304891,2.1581111589218076
60,1,327.2070327932015,2.2786557343788445,0,97,330.5062071955763,61,328.2246655416675,1.5901639344262295,0.9999999254457961,7.455420395776113e-08,-16.411739331654527,1,282.1099758381024,0.7780473409220576,0,32,283.9074443676509,16,283.1276714010164,2.0,0.9999999760527568,2.39472432225573e-08,-17.54741260129736,1,307.5940292091109,2.1112700570374727,1,24,310.72523126844317,69,308.61215262301266,0.34782608695652173,0.028900354227764047,0.971099645772236,3.514575232771309,1,287.53039084142074,1.528476377017796,1,3,290.07809206144884,18,288.5478817629628,0.16666666666666666,0.2983796595149638,0.7016203404850362,0.8550257313651227
61,0,333.0127087109722,1.8461846611462533,0,80,335.87698676111177,60,334.027564576827,1.3333333333333333,0.9999581596125413,4.18403874586599e-05,-10.08160663650347,1,286.40892940107733,0.6452520010061562,0,52,288.0765540902503,68,287.4296716726385,0.7647058823529411,0.9999999979447026,2.0552973334301265e-09,-20.002845309608638,0,313.2269403017126,1.5960250566713512,1,24,315.8453151322901,90,314.2475281045772,0.26666666666666666,0.0023875694145135684,0.9976124305854864,6.035088987686947,0,292.5798200573772,0.6455431613139808,0,77,294.24752612924203,72,293.60031541623175,1.0694444444444444,0.999999996333039,3.666960994170267e-09,-19.4239025812334
62,1,338.376825180836,1.7628501425497234,0,33,341.1635484518483,25,339.3977231066674,1.32,0.9934064209632687,0.006593579036731277,-5.01504356401401,0,290.5784954186529,1.1905196472071111,0,43,292.79619445838034,7,291.6040921974927,6.142857142857143,0.9999999999965326,3.467453003775282e-12,-26.387600796155347,0,318.3469317210838,1.4122415906749666,0,45,320.7815242712386,60,319.3676293506287,0.75,0.7853656254422811,0.21463437455771897,-1.2972133772005279,1,296.7492726929486,0.8788115466013551,0,66,298.65045890258625,59,297.7700106189586,1.11864406779661,0.9999999626406202,3.735937979501947e-08,-17.102681787139893
63,1,343.6637989208102,1.2797536081634462,1,43,345.96655099326745,93,344.68414060072973,0.46236559139784944,3.177271701293449e-08,0.999999968227283,17.264657839210184,1,295.29829855216667,0.8120403466746211,0,12,297.13274398166686,9,296.31900605838746,1.3333333333333333,0.997824335143978,0.0021756648560220192,-6.128242945169457,0,323.2836643154733,0.7954450282268226,0,9,325.10142000671476,7,324.30431453790516,1.2857142857142858,0.7792903303039772,0.2207096696960228,-1.2615355465315727,1,301.15217307116836,0.795574608258903,0,33,302.97013261402026,25,302.1728916396387,1.32,0.9999206876540373,7.931234596265619e-05,-9.442037439157412
64,1,348.4673545467667,0.8618614631704986,0,53,350.35215877043083,40,349.48787637474015,1.325,0.9991999147324696,0.0008000852675304154,-7.129991846056471,0,299.634323829785,0.6117121302522719,0,60,301.2687480049208,40,300.655320125632,1.5,0.9999999999999538,4.6204780532147e-14,-30.70569312745429,1,327.6080001392402,1.0289429435506463,0,98,329.6545031401329,73,328.6239242493175,1.3424657534246576,0.9998942855534154,0.00010571444658458372,-9.154663279041717,0,305.4717535483651,0.6455739755183458,0,58,307.1395481135696,58,306.49230974633247,1.0,0.9999993432672828,6.567327172178028e-07,-14.235988067612206
65,0,352.85344350803643,2.4631858649663627,1,60,356.34055069927126,70,353.8741845949553,0.8571428571428571,0.15751931977392408,0.8424806802260759,1.6768026145069965,1,303.77053605020046,0.6949577601626515,0,14,305.4881746452302,8,304.79164849361405,1.75,0.9995041742096203,0.0004958257903796782,-7.60878997325532,1,332.15591666754335,1.512482340913266,0,66,334.69101347308606,59,333.1768860993907,1.11864406779661,0.9942271870889997,0.005772812911000288,-5.1488062710140445,1,309.6413800101727,1.2787181539461017,0,87,311.94270512321964,89,310.6622214424424,0.9775280898876404,0.9999999990847067,9.152933146189301e-10,-20.81177653868183
66,0,358.84087978489697,1.2123115956783295,1,45,361.07676189253107,92,359.8615339579992,0.4891304347826087,1.0297114649837624e-07,0.9999998970288535,16.08881691607339,0,307.99010491231456,0.6271100197918713,0,87,309.6394750275649,76,309.0108080729842,1.144736842105263,1.0,1.8470029711984672e-18,-40.83296736401515,1,337.192931888625,0.9623143607750535,0,54,339.17745538195595,31,338.21354418527335,1.7419354838709677,0.9983029519026281,0.0016970480973719755,-6.377166460828888,0,314.444471440278,0.7119900160469115,0,78,316.1787780453451,65,315.46510704560205,1.2,0.9999999990508351,9.491648737176843e-10,-20.77543859729965
67,1,363.5773058910854,1.9627414215356112,0,94,366.5640733297914,46,364.59807937266305,2.0434782608695654,0.9999999992512846,7.48715395243151e-10,-21.012662183521837,0,312.14277813071385,0.678605008404702,0,12,313.84372896282,3,313.16355832805857,4.0,0.9993405257052141,0.0006594742947858274,-7.323407871545008,0,341.6793058468029,0.9329889984801412,0,14,343.6305999867618,7,342.69583123968914,2.0,0.8956691712395446,0.10433082876045541,-2.150004220172936,0,318.68056569527835,0.7273811893537641,0,38,320.43018643697724,43,319.7013127077371,0.8837209302325582,0.9998510437099511,0.00014895629004880906,-8.811708683047902
68,0,369.06424004537985,1.7626289082691073,0,95,371.8504833173938,16,370.0849175271578,5.9375,0.9999999999999952,4.753636031140441e-15,-32.97986658945461,0,316.345945648849,0.5784653942100704,0,71,317.9464171146974,64,317.36632209457457,1.109375,0.9999999999999952,4.788906837153448e-15,-32.97247422724675,1,346.1321802297607,0.9455574625171721,1,3,348.10009457776323,18,347.1528766746633,0.16666666666666666,0.24510426081382497,0.754895739186175,1.124895971555752,0,322.93363452749327,0.6286310041323304,0,45,324.58439486147836,42,323.95408919500187,1.0714285714285714,0.9999906622315905,9.337768409552576e-06,-11.581433924772861
69,1,374.3510502297431,1.9462804235517979,1,10,377.32102521462366,44,375.37175536574796,0.22727272727272727,1.1193508354434556e-05,0.9999888064916456,11.400165365342936,1,320.4481332586147,0.6288293246179819,0,62,322.0994328507222,43,321.4689359748736,1.441860465116279,0.9999999999999767,2.3320034874431215e-14,-31.389463537956452,1,350.6018628696911,1.029067387804389,0,97,352.65308566205204,61,351.6224040556699,1.5901639344262295,0.9999700892625423,2.991073745768947e-05,-10.417263118550922,0,327.0858727837913,0.6119061047211289,0,55,328.7204897487536,60,328.10695006744936,0.9166666666666666,0.9999973205906204,2.6794093795499416e-06,-12.829911489080896
70,0,379.8214451642707,1.6780779976397753,1,6,382.52318651322275,26,380.8422218062915,0.23076923076923078,0.002382835487033552,0.9976171645129664,6.0370784403660895,0,324.60136469779536,0.5287031419575214,0,58,326.1520122815855,58,325.6217731432989,1.0,0.9999999999939975,6.0024975520103705e-12,-25.8388454746377,1,355.1548788426444,0.8320268671959639,1,10,357.0060558868572,44,356.17213707370684,0.22727272727272727,0.04735021874316503,0.952649781256835,3.001675905972379,1,331.22271157056093,0.5953609589487314,0,62,332.84004146559164,43,332.24299833737314,1.441860465116279,0.9999999819474528,1.80525472705067e-08,-17.82997902105213
71,1,385.0249259658158,1.9632510500960052,0,14,388.0118146883324,8,386.0455256206915,1.75,0.9831535175591682,0.01684648244083177,-4.066623402660154,0,328.65392082044855,0.5117479227483273,0,59,330.1880319491029,65,329.6745619564317,0.9076923076923077,0.9999999999872459,1.2754170105205492e-11,-25.085162830711194,1,359.50782180856913,1.7961083352565765,1,37,362.3262886092998,54,360.52853129059076,0.6851851851851852,0.6446971818929168,0.35530281810708314,-0.5958102864930855,0,335.3416770170443,0.6288810772821307,0,56,336.99268268374726,59,336.36216644989327,0.9491525423728814,0.999998399301957,1.600698042968791e-06,-13.345069146304796
72,1,390.51167444186285,1.1787097002379596,0,46,392.71466181240976,40,391.5328990826383,1.15,0.98744042873177,0.012559571268229987,-4.364633143858328,0,332.6897765379399,0.49523477675393224,0,28,334.2073464714922,41,333.7105377726257,0.6829268292682927,0.9999548219032222,4.517809677781729e-05,-10.004852994019357,0,364.8279336425476,1.729397579561919,0,38,367.579691268038,43,365.84860480343923,0.8837209302325582,0.8902964853100971,0.10970351468990293,-2.093773130939047,0,339.49450193857774,0.6147264442406595,0,96,341.1312308986671,89,340.5150992232375,1.0786516853932584,0.9999999999688942,3.110576589219965e-11,-24.193627915433414
73,1,395.214981416706,1.8793800389394164,1,54,398.1181934978813,78,396.23588250298053,0.6923076923076923,0.000797670006349116,0.9992023299936509,7.133017583603821,0,336.70922775100917,0.5953246136195958,0,95,338.32679231185466,16,337.72992893634364,5.9375,1.0,7.079365572699454e-26,-57.91002812253041,1,370.0815567448735,1.7959471503272653,0,15,372.90007924940437,19,371.1023112637922,0.7894736842105263,0.708354237569516,0.291645762430484,-0.8874043806637311,1,343.630429320503,0.6286041396670043,0,69,345.2817142950371,61,344.65130512276664,1.1311475409836065,0.9999999840079291,1.5992070855057444e-08,-17.951172793109638
74,1,400.6186418919824,1.1122264992445707,0,58,402.75460838433355,6,401.6393948304467,9.666666666666666,0.9999999997762193,2.237806063587838e-10,-22.220354979708773,1,340.8285124064423,0.4950577891431749,0,46,342.34609379665926,36,341.8494660356082,1.2777777777777777,0.9999999998363023,1.6369770857279529e-10,-22.532999629208422,0,375.40178275154904,1.9960035649128258,1,35,378.42012818949297,62,376.4224685295485,0.5645161290322581,0.3274429940541015,0.6725570059458985,0.7197728991217789,1,347.7834051554091,0.9789495808072388,1,15,349.78452475741506,19,348.80395621759817,0.7894736842105263,0.9711035132242679,0.028896486775732116,-3.514713044496597
75,0,405.2549832970835,2.146456936839968,0,37,408.42320215748623,52,406.2758211735636,0.7115384615384616,0.021463814210998522,0.9785361857890015,3.8196893097867797,1,344.84799127373844,1.0957548348233104,1,4,346.96604650001973,22,345.8686213484034,0.18181818181818182,0.16984973999574848,0.8301502600042515,1.5866925567373251,1,380.9221066539176,1.5458491751924157,0,33,383.4906117753126,25,381.94295993773267,1.32,0.9666166534450311,0.0333833465549689,-3.3657448186539,1,352.2863388764672,0.7288081492297351,0,25,354.03752366406843,37,353.3070704820566,0.6756756756756757,0.9915339623266304,0.008466037673369566,-4.763190608804634
76,0,410.92554684355855,1.4120883070863783,1,12,413.3614948471077,23,411.94664546009153,0.5217391304347826,0.07519100150891012,0.9248089984910899,2.5095556650629764,0,349.46623059827834,0.5981129528954625,0,53,351.08498745271936,15,350.4853475904092,3.533333333333333,0.9999999999999718,2.8161744120608166e-14,-31.200811929437634,0,385.99221374699846,1.5125743900425732,0,55,388.5270810225047,60,387.0129161174409,0.9166666666666666,0.9558138052123066,0.04418619478769333,-3.074150724483255,0,356.5391532899812,1.1957210176624358,1,24,358.75737776001915,90,357.55989595642313,0.26666666666666666,0.04739970054217635,0.9526002994578237,3.000579491719653
77,1,415.8622024008073,0.8787886332720518,1,14,417.7647112738341,57,416.88288620393723,0.24561403508771928,3.6093770450218443e-07,0.9999996390622955,14.834560096272451,1,353.5869307569228,0.6239408422261477,0,54,355.2381323738955,78,354.6125069926493,0.6923076923076923,0.9999999958170815,4.182918436328097e-09,-19.292256639339318,1,391.02893622778356,1.5124851064756513,1,43,393.5638485401869,97,392.0495493146591,0.44329896907216493,0.029338439390299786,0.9706615606097002,3.4990792794882384,0,361.25875059654936,1.1328621045686305,0,62,363.4104069280438,17,362.27585198776796,3.6470588235294117,0.999999999518582,4.814179793720964e-10,-21.45428524270232
78,0,420.26507986569777,1.4959664293564856,0,43,422.78473414015025,7,421.28572969324887,6.142857142857143,0.9999998767249768,1.232750231977171e-07,-15.908847893382607,0,357.7402668870054,0.5949860461987555,0,80,359.35713535081595,60,358.7605856540613,1.3333333333333333,1.0,6.761149347738847e-18,-39.53533877643517,0,396.06557495566085,0.8619843274354935,0,77,397.95010184682906,72,397.08638043748215,1.0694444444444444,0.9961009641376327,0.0038990358623672674,-5.543119314267776,1,365.912132948637,0.6121443267911673,0,58,367.54674517316744,58,366.9328384799883,1.0,0.9999993432672828,6.567327172178028e-07,-14.235988067612206
79,1,425.2852635215968,1.6111211190000176,0,56,427.9183543664403,46,426.306292607449,1.2173913043478262,0.9975291396298562,0.002470860370143782,-6.0007149430176385,1,361.8592643337324,0.6450524958781898,0,72,363.52695776335895,51,362.8803092218004,1.411764705882353,0.9999999999999998,1.893992086699118e-16,-36.20267467123874,0,400.4518464352004,0.8119917544536293,0,40,402.2862966055982,15,401.47263650922105,2.6666666666666665,0.9970110676087409,0.002988932391259046,-5.809845606949708,1,370.0481571201235,0.5287051172927022,0,94,371.5990796661936,46,371.0687465034425,2.0434782608695654,0.9999999999998356,1.6445321173529102e-13,-29.436150292303253
80,1,437.4461891646497,1.494926234241575,1,26,439.96172058489174,84,438.46399336960167,0.30952380952380953,1.239096825145225e-09,0.9999999987609032,20.50888308829672,1,373.0542303901166,0.7445165566168725,0,56,374.81803855486214,46,374.0718240272254,1.2173913043478262,0.9999999999980198,1.980201608955587e-12,-26.947822453698862,1,411.8133570845239,1.1115011679939926,0,75,413.94414432998747,70,412.83097995631397,1.0714285714285714,0.995626378905296,0.0043736210947039516,-5.42778077385081,1,381.1249150619842,1.6284164856188,1,26,383.77284241467714,84,382.142727562692,0.30952380952380953,0.19581191382226526,0.8041880861777347,1.4126786047102822
81,1,442.4635054692626,1.1787547366693616,1,52,444.6652124482207,68,443.4839210258797,0.7647058823529411,0.01686119177469725,0.9831388082253028,4.065735682358856,0,377.3196930694394,0.7454473194666207,0,40,379.08745934814215,15,378.3403065511957,2.6666666666666665,0.9999999998833704,1.166295725117036e-10,-22.87201825045304,1,416.44586047390476,0.8654987881891429,0,94,418.33039645152166,46,417.4629986062646,2.0434782608695654,0.9999915771078681,8.422892131882291e-06,-11.684548882162948,1,386.2757093710825,1.612614843994379,0,24,388.9107585325837,69,387.2964077908546,0.34782608695652173,0.48169437649246805,0.518305623507532,0.07325523577141974
82,0,447.1667717532255,1.3957821731455624,1,35,449.5856827599928,62,448.18706444557756,0.5645161290322581,0.0002102135961989937,0.999789786403801,8.467176183716418,1,381.589299146086,0.7622204152867198,0,50,383.37366548459977,62,382.609839937184,0.8064516129032258,0.9999999977597029,2.2402970583561278e-09,-19.916657362294245,1,420.83210469409823,1.462567594833672,0,54,423.3169912486337,78,421.8527770405635,0.6923076923076923,0.6761241891361762,0.3238758108638237,-0.7360166283987646,1,391.4125351207331,0.6617295918986201,0,54,393.09690801706165,78,392.43349072523415,0.6923076923076923,0.9999520361575622,4.7963842437752094e-05,-9.945015148470333
83,1,452.0866633011028,1.3623501532711089,0,98,454.47212214022875,73,453.10714325262234,1.3424657534246576,0.9999948573109428,5.142689057181929e-06,-12.177929309721044,0,385.8752955053933,0.9287582924589515,1,7,387.8265276211314,54,386.8962258263491,0.12962962962962962,0.0023785657810803107,0.9976214342189197,6.038876186872083,1,425.8188018123619,0.8285250486806035,0,53,427.66990774543956,55,426.8396543059498,0.9636363636363636,0.9650710449537976,0.03492895504620239,-3.318885577625659,0,395.5986202103086,0.7121109045110643,0,12,397.33310182765126,23,396.61924001341686,0.5217391304347826,0.8617431035770277,0.13825689642297234,-1.8298436796845015
84,0,456.9729142370634,0.9456653138622642,0,68,458.94258305011317,63,457.99360949685797,1.0793650793650793,0.9849879530536676,0.015012046946332437,-4.1837764021733514,1,390.32838440686464,0.4777869167737663,0,66,391.8286992702633,59,391.3493976900354,1.11864406779661,0.9999999999999565,4.3541459663898925e-14,-30.765062815001528,1,430.17174043226987,0.828956454526633,0,45,432.02281041489914,40,431.1923780133948,1.125,0.9758188289269869,0.024181171073013076,-3.6977026675963245,1,399.8347346140072,0.6287068552337587,0,14,401.4858532678336,8,400.855387206655,1.75,0.9907359993072897,0.009264000692710246,-4.6723121049574
85,1,461.4425079883076,1.8626934615895152,0,32,464.3291049976833,16,462.4633857659064,2.0,0.9996940057694886,0.0003059942305113767,-8.091638269671328,0,394.3310084003024,0.6284346585161984,0,22,395.98201011680067,31,395.3518747212365,0.7096774193548387,0.9997121364059919,0.00028786359400815605,-8.152735916908792,0,434.52464033663273,0.7621552306227386,1,15,436.308696157299,42,435.545089868363,0.35714285714285715,0.13317670330266584,0.8668232966973342,1.8731583032914358,0,403.98739874595776,0.5566896433010697,0,71,405.5720417057164,64,405.0133969062008,1.109375,0.9999999885411807,1.14588193638998e-08,-18.284506141855477
86,1,466.8278613463044,0.7327773249708116,1,3,468.5809803516604,18,467.84588125441223,0.16666666666666666,0.015730090925938245,0.9842699090740618,4.136324659809838,1,398.4838325320743,0.528649018611759,0,54,400.0346843623556,31,399.50444601429626,1.7419354838709677,0.9999999999996406,3.5938509405505334e-13,-28.6543818959478,0,438.8107860288583,0.7954296204261482,0,12,440.62862744834274,3,439.83150380663574,4.0,0.9067611512152038,0.09323884878479621,-2.27471460879555,0,408.07372150430456,0.6287874476984143,0,41,409.7247880101204,22,409.0941943442449,1.8636363636363635,0.9999974163807058,2.583619294187053e-06,-12.866316731246663
87,0,471.08225165726617,1.4456759802997112,0,14,473.55171780334786,7,472.1031598546542,2.0,0.9884831662265862,0.011516833773413825,-4.452361841418874,0,402.5365336416289,0.561639360152185,0,9,404.1203208998777,7,403.557168061845,1.2857142857142858,0.9900934378899788,0.009906562110021137,-4.6046019434264,1,443.1304960856214,1.0122725632973015,1,40,445.1650492879562,93,444.1510712467134,0.43010752688172044,0.027866642617364934,0.9721333573826351,3.552062625593898,1,412.2265053396113,0.6454621739685535,0,42,413.89439866971225,67,413.2470014882274,0.6268656716417911,0.9990605164317689,0.0009394835682311087,-6.969240304012532
88,1,476.0524012586102,1.0119185890071094,0,41,478.08836443256587,7,477.07322609843686,5.857142857142857,0.9999997283484556,2.7165154440445925e-07,-15.11874540704028,0,406.6226067217067,0.6952548460103571,0,62,408.34027573652565,17,407.6433675615117,3.6470588235294117,0.9999999999999999,1.3137030900374083e-16,-36.568511552250506,1,447.66674488876015,1.2292810366488993,1,43,449.91831011977047,93,448.68730227230117,0.46236559139784944,0.046575685029181524,0.9534243149708185,3.018981421409084,0,416.39563481509686,0.6286460161209106,0,53,418.0468869996257,57,417.4165197038092,0.9298245614035088,0.9999962605868842,3.7394131158192117e-06,-12.496578140335053
89,1,480.5890004807152,1.6789040695875883,0,75,483.29168760497123,70,481.6098533696495,1.0714285714285714,0.985922028929353,0.014077971070647014,-4.248966033060449,1,410.842089460697,1.4484903933480382,1,10,413.3099042531103,44,411.86016507213935,0.22727272727272727,0.10669961683598161,0.8933003831640184,2.1249053323778644,1,452.41979199275374,1.212236929219216,0,87,454.6538967215456,89,453.44047461031005,0.9775280898876404,0.9949315594543199,0.005068440545680074,-5.279640764714077,0,420.5484909466468,0.5785977393388748,0,60,422.14963006507605,61,421.5692509962246,0.9836065573770492,0.9999995294303651,4.7056963491483445e-07,-14.56932141635805
90,0,485.79225609777495,1.6122707463800907,1,28,488.42854930553585,41,486.8132950598374,0.6829268292682927,0.0418053078311319,0.9581946921688681,3.1320276719813296,0,415.8154441905208,0.7784593892283738,0,41,417.6129079791717,22,416.8328683464788,1.8636363636363635,0.9999999997521842,2.4781574570211473e-10,-22.118335606526532,0,457.1562927654013,1.6791138472035527,0,37,459.8577429545112,52,458.17694733384997,0.7115384615384616,0.6975924029022135,0.30240759709778653,-0.8358592155326656,0,424.6515342579223,0.8285586284473538,0,50,426.5022384142503,7,425.672033962328,7.142857142857143,0.9999999891501439,1.0849856140868354e-08,-18.33911400510413
91,1,490.9291051561013,1.328992404974997,0,16,493.2816127645783,10,491.9497731560841,1.6,0.9834592474193176,0.016540752580682435,-4.08524901148504,1,420.11494728317484,0.9792304690927267,0,40,422.1164192794822,93,421.13570456719026,0.43010752688172044,0.9993480393696894,0.0006519606303106082,-7.334874207570875,0,462.359653073363,0.7621805141679943,0,41,464.1443658801727,22,463.3804771229625,1.8636363636363635,0.9942189267973192,0.005781073202680807,-5.147368090039452,0,429.00425677979365,0.5817989176139235,0,54,430.60416923463345,80,430.02149367751554,0.675,0.9999366151541186,6.338484588141385e-05,-9.666222362189549
92,0,495.7822547387332,0.8729354119859636,0,78,497.6847019819543,65,496.80880321888253,1.2,0.999365990213308,0.0006340097866920294,-7.362811956367541,0,424.61787389358506,0.8620250187814236,0,12,426.50246241362765,23,425.6388053991832,0.5217391304347826,0.9657601315679099,0.03423986843209016,-3.3395247836265036,0,466.64599392563105,0.9285753788426518,1,14,468.5972619918175,57,467.66705698659644,0.24561403508771928,0.020811488650329113,0.9791885113496709,3.85121900581656,0,433.10680349962786,0.6441853372380137,0,37,434.7728554517962,52,434.12765915412456,0.7115384615384616,0.999239960543158,0.0007600394568420288,-7.181379880700865
93,1,500.18490899400786,0.8624125733040273,0,54,502.0710821035318,31,501.205743315164,1.7419354838709677,0.9999832431896624,1.675681033761968e-05,-10.996689038056113,0,429.004213323351,2.363159237895161,1,14,432.38992816209793,57,430.0249607306905,0.24561403508771928,0.10417026975541754,0.8958297302445825,2.1517235921450144,0,471.0990200121887,0.9120551222003996,0,62,473.0336259943433,17,472.11981166666374,3.6470588235294117,0.9999235700004695,7.642999953048287e-05,-9.47905884193213,1,437.2762581105344,1.507444525603205,1,15,439.8114015334286,56,438.3022562712431,0.26785714285714285,0.16206357964852203,0.837936420351478,1.6429535016979078
94,1,504.5714123742655,0.812318074516952,0,69,506.4072654051706,61,505.5918978564441,1.1311475409836065,0.9952757194684175,0.004724280531582425,-5.350304522861955,1,434.8914112201892,0.8115192614495754,0,43,436.725806477014,97,435.9127192189917,0.44329896907216493,0.9997882996281449,0.00021170037185515124,-8.460126900522082,1,475.5353611013852,0.9955117143690586,0,82,477.5532889603637,40,476.556122336071,2.05,0.9999654258901854,3.4574109814588546e-05,-10.272370852542418,0,442.31313980091363,0.47836094023659825,0,87,443.81363007146865,85,443.33393975161016,1.0235294117647058,0.9999999994759123,5.240876829315154e-10,-21.369362111243394
95,1,508.9077485646121,0.9789381241425872,1,19,510.90996209019795,37,509.9283529603854,0.5135135135135135,0.005797379032254191,0.9942026209677458,5.144535105486926,0,439.227935064584,0.6119104507379234,0,87,440.86172082135454,85,440.2483506212011,1.0235294117647058,1.0,1.1092971387689804e-17,-39.04021997445182,1,480.0548822404817,1.0122322672978044,1,17,482.089724231977,82,481.07579557364807,0.2073170731707317,0.001798953830150607,0.9982010461698494,6.318749414626449,1,446.3158799423836,0.6448134835809469,0,55,447.98350937245414,95,447.3368371273391,0.5789473684210527,0.999647827682399,0.0003521723176009683,-7.951037729167176
96,0,513.4106621379033,1.4459367208182812,1,7,515.8802851233631,54,514.4313111752272,0.12962962962962962,7.228107101742154e-08,0.999999927718929,16.442703481433192,0,443.36394540872425,0.6120036854408681,0,68,444.9980436586775,63,444.3844380020164,1.0793650793650793,0.9999999999999731,2.681971694185547e-14,-31.24963907110777,0,484.59138625254855,1.0457914965227246,0,95,486.65944693097845,16,485.6118808211759,5.9375,0.9999998074628558,1.9253714418597592e-07,-15.462976552484916,1,450.48525356547907,0.7289136298932135,0,54,452.2366544511169,31,451.5057848752476,1.7419354838709677,0.9999999315146302,6.84853697655866e-08,-16.49664562606876
97,0,518.3804704071954,1.2955540646798909,0,56,520.7000046619214,59,519.4013979621232,0.9491525423728814,0.7283199268315147,0.2716800731684853,-0.9861152391542738,0,447.4999051853083,2.3628886211663485,1,24,450.88466516230255,90,448.52066207444295,0.26666666666666666,0.08961325015917132,0.9103867498408287,2.3183663187608534,0,489.16109433444217,0.8448987379670143,0,58,491.02868022816256,58,490.1818772973493,1.0,0.9791081066790973,0.020891893320902705,-3.847280857707652,0,454.73815923789516,0.4951443080790341,0,71,456.2557153441012,69,455.7588303987868,1.0289855072463767,0.9999999769943086,2.3005691406795363e-08,-17.58752417615352
98,0,523.2004036731087,1.0955979954451323,1,38,525.3200505995192,43,524.2212775005028,0.8837209302325582,0.5117498069637235,0.4882501930362765,-0.04700788221285893,1,453.3868237743154,0.6789147364906967,0,16,455.0881080380641,10,454.4076371570118,1.6,0.9997948890837177,0.00020511091628228886,-8.491754538153408,1,493.5306290630251,1.0790263805538416,0,74,495.6321581066586,60,494.55131286615506,1.2333333333333334,0.9984224944344268,0.0015775055655731928,-6.450331684320437,0,458.7574275378138,0.4954303316771984,0,80,460.27522818697616,60,459.7779576620087,1.3333333333333333,0.9999999997770209,2.2297909541601603e-10,-22.223943091168632
99,0,527.8202580064535,1.0288690673187375,0,53,529.8727837093174,15,528.8410073895939,3.533333333333333,0.9999999480743458,5.1925654271277747e-08,-16.773452815024477,1,457.5899249226786,1.0957283657044172,1,3,459.70805995119736,18,458.61059015756473,0.16666666666666666,0.193006401971215,0.806993598028785,1.4305923759985928,0,498.1338430410251,1.7960036438889802,0,62,500.95234579220414,17,499.15452723857015,3.6470588235294117,0.9999235700004695,7.642999953048287e-05,-9.47905884193213,1,462.7768250228837,0.56149792810902,0,42,464.36133208172396,39,463.7979828985408,1.0769230769230769,0.9999810244317473,1.8975568252658772e-05,-10.872339311943508
