,self_acceptUp,self_cue_times,self_decision_times,self_decisions,self_punishment_values,self_response_times,self_reward_values,self_trial_times,self_punishment_reward_ratio,self_prob_reject,self_prob_accept,self_SV,harm_other_acceptUp,harm_other_cue_times,harm_other_decision_times,harm_other_decisions,harm_other_punishment_values,harm_other_response_times,harm_other_reward_values,harm_other_trial_times,harm_other_punishment_reward_ratio,harm_other_prob_reject,harm_other_prob_accept,harm_other_SV,harm_self_acceptUp,harm_self_cue_times,harm_self_decision_times,harm_self_decisions,harm_self_punishment_values,harm_self_response_times,harm_self_reward_values,harm_self_trial_times,harm_self_punishment_reward_ratio,harm_self_prob_reject,harm_self_prob_accept,harm_self_SV,other_acceptUp,other_cue_times,other_decision_times,other_decisions,other_punishment_values,other_response_times,other_reward_values,other_trial_times,other_punishment_reward_ratio,other_prob_reject,other_prob_accept,other_SV
0,1,0.007712783990427852,1.121860644489061,1,6,2.1704129023710266,8,1.0456450009369291,0.75,0.00026669516927535497,0.9997333048307246,8.22913750915489,1,0.008769573294557631,1.073147596558556,1,19,2.1200891890912317,37,1.044125989836175,0.5135135135135135,0.000130310526531896,0.9998696894734681,8.945459971187883,1,0.007630611245986074,1.5787791970651597,1,54,2.619702028867323,78,1.039045499986969,0.6923076923076923,0.035565238462557436,0.9644347615374426,3.3001734772458264,0,0.0088304128148593,1.890603938314598,1,14,2.937516691396013,57,1.0440671257092617,0.24561403508771928,0.0038482470792317036,0.9961517529207683,5.556281867827232
1,1,4.671018926601391,1.3653859829064459,0,58,7.056922029063571,6,5.688762319972739,9.666666666666666,0.6605380117596815,0.3394619882403185,-0.6656926954989737,0,4.621104496938642,1.5127055702032521,1,71,7.157417357084341,64,5.6415252215228975,1.109375,0.0786842874907967,0.9213157125092033,2.4603592858829813,1,5.121044052473735,1.2131154859089293,0,74,7.356004459434189,60,6.1412012710934505,1.2333333333333334,0.8831100518955118,0.11688994810448813,-2.02221694927024,1,5.438496838731226,1.9630080292117782,1,16,8.424726182944141,10,6.458598748780787,1.6,0.0751966362007549,0.9248033637992451,2.509474636655295
2,1,9.55766276922077,0.645264477818273,1,25,11.226483969192486,37,10.5783268516534,0.6756756756756757,0.0002838904377251428,0.9997161095622749,8.166638246152045,1,9.65757340635173,1.1122029730468057,1,53,11.793546039669309,40,10.67845674790442,1.325,0.11301647948090143,0.8869835205190986,2.060292759047361,1,9.8578292481252,0.7459932871279307,0,69,11.625719209259842,61,10.877984886523336,1.1311475409836065,0.7520520719365488,0.2479479280634512,-1.1095868095163781,1,10.930089141707867,1.6294138236553408,1,53,13.577519741258584,55,11.945619796053506,0.9636363636363636,0.27770573788684727,0.7222942621131527,0.9558705648369882
3,0,13.727070240303874,0.6119453930296004,1,71,15.362523367861286,64,14.747673088219017,1.109375,0.032844349907664494,0.9671556500923355,3.382579710918202,0,14.292436707240995,1.5299642232130282,0,53,16.830006652860902,15,15.297216555278283,3.533333333333333,0.9207089933810638,0.07929100661893615,-2.45201930561596,1,14.125097777694464,0.880326415586751,0,41,16.0117882375489,7,15.12986300844932,5.857142857142857,0.9575579608123501,0.042442039187649855,-3.116246891397362,0,16.077679741138127,2.733354877331294,1,43,19.832056231505703,7,17.09594461560482,6.142857142857143,0.6840067003214048,0.3159932996785953,-0.7722467035527347
4,1,17.863080404466018,0.5825575643684715,1,15,19.463234794442542,56,18.8791673053056,0.26785714285714285,6.976195027097454e-06,0.9999930238049729,11.872999938662987,1,19.330661269603297,1.0123140643700026,1,52,21.36670311767375,68,20.35143912973581,0.7647058823529411,0.0006535008584742652,0.9993464991415257,7.33251299676152,0,18.51363831019262,1.6965477953199297,1,45,21.232217100448906,60,19.53398634347832,0.75,0.07054116629516782,0.9294588337048322,2.5784060590519076,0,22.332763786485884,1.7628766318084672,0,50,25.11926864652196,7,23.35341562202666,7.142857142857143,0.8287005573797686,0.17129944262023145,-1.5764457289476925
5,0,21.96585168124875,0.8463120227097534,1,40,23.835022747633047,15,22.98571971495403,2.6666666666666665,0.0354348229829734,0.9645651770170266,3.3039823693185113,1,23.86684929038165,0.8788631080533378,1,53,25.769591490679886,55,24.887783199781552,0.9636363636363636,0.008428435148330693,0.9915715648516693,4.767679997845345,1,23.733852259640116,1.8797962430980988,1,16,26.63569925079355,10,24.75396167585859,1.6,0.2300435608239424,0.7699564391760576,1.208065254871865,1,27.619657386967447,2.413288759882562,0,56,31.056519066507462,46,28.640342012571637,1.2173913043478262,0.4820623517663234,0.5179376482336766,0.07178139861385571
6,1,26.335449413920287,0.6114883069531061,1,43,27.97076980082784,93,27.35652080469299,0.46236559139784944,1.414932058407814e-05,0.9999858506794159,11.165829800866605,0,28.270174601348117,0.8460544426343404,1,24,30.139376087405253,90,29.2901105855708,0.26666666666666666,2.7217438414162132e-08,0.9999999727825616,17.41940792368775,1,29.137842063908465,1.0128477923572063,0,54,31.171996703604236,31,30.157245505368337,1.7419354838709677,0.9099096707639065,0.09009032923609356,-2.3125325065062383,1,33.55720963381464,2.446447449736297,0,88,37.02717864519218,96,34.577777716331184,0.9166666666666666,0.6474182700714053,0.35258172992859466,-0.6077101084479675
7,1,30.47156150394585,0.6626463900320232,1,52,32.157059431425296,68,31.491453636379447,0.7647058823529411,0.0009265468689927392,0.9990734531310073,6.983118949991349,0,32.63964196376037,0.812353728513699,1,38,34.47441068687476,43,33.66015868826071,0.8837209302325582,0.002791916761883395,0.9972080832381166,5.87823108617459,0,33.67895215487806,0.9796416950994171,0,77,35.67578257713467,72,34.694120537955314,1.0694444444444444,0.7436662715824682,0.25633372841753177,-1.0651121523720035,0,39.52743859565817,2.4803650525282137,1,71,43.03097360517131,64,40.54776490054792,1.109375,0.6393715057914877,0.3606284942085123,-0.572637345124751
8,1,34.65769152971916,0.7786210143822245,1,14,36.46017188328551,8,35.67858632799471,1.75,0.0010131363518997016,0.9989868636481003,6.893690810779441,1,36.9757768092677,0.9959442995022982,1,46,38.99506410269532,36,37.99608810187783,1.2777777777777777,0.05379198753333725,0.9462080124666628,2.8673379057394586,1,38.176721638126764,1.1797158085973933,1,24,40.37826103443513,69,39.1967480914318,0.34782608695652173,0.0009251166531810684,0.9990748833468189,6.984665172018448,0,45.53193755506072,2.1129899353836663,1,38,48.66841823729919,43,46.55237013148144,0.8837209302325582,0.12347668666198763,0.8765233133380124,1.9599109359448392
9,0,38.9603623028961,1.3798906627926044,1,87,41.36313610809157,76,39.980470929003786,1.144736842105263,0.11938717169387969,0.8806128283061203,1.9982463054669353,0,41.49369481980102,1.095691381196957,1,60,43.59805621881969,61,42.4993114079698,0.9836065573770492,0.013104353322971218,0.9868956466770288,4.321619816326317,0,42.87986774923047,2.5973703922354616,1,60,46.49925333389547,70,43.900260424474254,0.8571428571428571,0.1989346371532863,0.8010653628467137,1.3929662310408928,1,51.1687710271799,1.4966309161973186,1,54,53.688064641552046,78,52.188721628685016,0.6923076923076923,0.09800994323427004,0.90199005676573,2.219534561362666
10,1,43.86376030516112,0.6960393512854353,1,69,45.58286610734649,61,44.8839033015538,1.1311475409836065,0.032458329787376505,0.9675416702126235,3.394801387687286,1,46.09860337886494,1.146294402948115,1,15,48.26788522046991,19,47.11880563455634,0.7894736842105263,0.001399390413279522,0.9986006095867205,6.57031818579492,1,49.00055585138034,2.0464185312157497,0,58,52.06930720445234,58,50.021286304167006,1.0,0.43113564259203563,0.5688643574079644,0.277219261441892,1,56.18872399907559,1.162952167505864,1,42,58.374665580515284,67,57.20867460058071,0.6268656716417911,0.05026589955524863,0.9497341004447514,2.938855145196123
11,1,48.08337218099041,0.5813565776916221,1,45,49.68586533458438,40,49.10125621629413,1.125,0.005767906420298896,0.9942320935797011,5.149661498039542,0,50.768449763185345,2.14719632815104,1,87,53.93869120895397,76,51.78840036474867,1.144736842105263,0.24390698287272017,0.7560930171272798,1.1313774722625665,1,54.571221672114916,1.4130371057544835,0,75,57.00604206928983,70,55.59122442174703,1.0714285714285714,0.7284289632915595,0.27157103670844057,-0.9866663594705646,1,60.87513214809587,1.9586003290023655,1,45,63.861525442800485,40,61.90022131340811,1.125,0.2737058523072443,0.7262941476927557,0.9759010968652598
12,0,52.18591906293295,1.3299687269609421,0,95,54.538959376572166,16,53.205981466860976,5.9375,0.9968899461862455,0.003110053813754547,-5.770000349400815,1,56.43931145535316,0.8287626044475473,1,24,58.29128747357754,69,57.459695834317245,0.34782608695652173,1.2049566189276106e-06,0.9999987950433811,13.629065787602308,0,59.50773411733098,0.7290333005366847,0,71,61.25892878306331,64,60.527861311275046,1.109375,0.7443331193766345,0.2556668806233655,-1.0686133261677733,1,66.36220455332659,1.345630541734863,1,42,68.73191211308585,39,67.38311396894278,1.0769230769230769,0.22086702898986754,0.7791329710101325,1.2606208841396531
13,0,57.03948520333506,0.7457139787147753,1,24,58.808228102105204,90,58.059617928171065,0.26666666666666666,8.184311753867135e-07,0.9999991815688246,14.015875711510738,0,60.79166357201757,1.5631545179639943,1,80,63.37794261495583,60,61.811931012780406,1.3333333333333333,0.5566277940808547,0.4433722059191453,-0.22748717208372748,0,63.76042211521417,1.1628747354843654,0,40,65.94545821589418,15,64.78077409911202,2.6666666666666665,0.8810331645320993,0.11896683546790063,-2.0022505086962474,0,71.23192673036829,1.49692286667414,0,68,73.75206380087184,63,72.25205985025968,1.0793650793650793,0.5714862403518202,0.42851375964817984,-0.2879175578503567
14,0,61.30827550950926,0.7989982822909951,1,68,63.12712839333108,63,62.32567164389184,1.0793650793650793,0.02239738855053819,0.9776026114494618,3.7761588902005783,0,65.87842617015122,1.1630003650207072,1,9,68.06449535646243,7,66.898611833225,1.2857142857142858,0.003285345358990055,0.99671465464101,5.714992746503532,0,68.44648221507668,1.0794551470899023,1,12,70.54863364057383,23,69.46729879121995,0.5217391304347826,0.03244943872306527,0.9675505612769347,3.3950845369254887,0,76.25219377607573,1.9130896489368752,0,15,79.1882748142234,42,77.27267692040186,0.35714285714285715,0.010536241795657708,0.9894637582043423,4.542342224347678
15,1,65.62827012082562,0.9788207574747503,1,72,67.63118488399778,51,66.64929489436327,1.411764705882353,0.13920897402871413,0.8607910259712859,1.8218755497145531,1,70.5649283437524,0.6620455015799962,1,58,72.25026982696727,58,71.58545533986762,1.0,0.014528559419270448,0.9854714405807296,4.2170038191490695,0,73.05012144183274,1.562484098772984,1,7,75.63515762158204,54,74.07095263525844,0.12962962962962962,0.00037421979200391586,0.9996257802079961,7.8902929641809525,1,81.68937427015044,1.4957515095011331,0,15,84.20820763800293,56,82.70992496993858,0.26785714285714285,0.004580029203582914,0.9954199707964171,5.381459354875896
16,0,70.1313460690435,0.6957809811574407,1,28,71.85011132829823,41,71.15147128771059,0.6829268292682927,0.0003050593620579356,0.9996949406379421,8.094699064694485,1,74.75135624583345,1.0625453332904726,1,6,76.83694827696308,8,75.7715189953451,0.75,0.001426965112170664,0.9985730348878293,6.550777404963584,0,78.13619307754561,1.2966259384993464,1,9,80.4551182576688,7,79.15678288845811,1.2857142857142858,0.12343429924612681,0.8765657007538732,1.96030263502708,1,86.70928852603538,1.6654892519582063,0,58,89.39504798420239,6,87.72673759865575,9.666666666666666,0.9279399529982753,0.0720600470017247,-2.5554672672939467
17,0,74.35093305603368,0.5953385913162492,1,7,75.96960555482656,54,75.37161017546896,0.12962962962962962,2.273881566150493e-06,0.9999977261184338,12.994019971836094,1,79.33758116536774,0.8128700737725012,1,14,81.17298909788951,57,80.35739547072444,0.24561403508771928,1.1829911755745215e-06,0.9999988170088244,13.647463249366167,0,82.95633899740642,0.8787378736305982,0,50,84.85792880359804,7,83.97752772143576,7.142857142857143,0.9894813021316001,0.010518697868399866,-4.544026445704237,1,91.89602062536869,2.0800931712728925,0,58,94.9993461733684,58,92.91622485633707,1.0,0.3632574728944884,0.6367425271055116,0.5612535032394981
18,1,78.47028110985411,0.6962684869067743,1,53,80.1893944182084,40,79.49019694601884,1.325,0.02157909772415978,0.9784209022758402,3.8142147996646187,0,83.67378751700744,0.9789653499610722,1,77,85.67647432972444,72,84.69461910548853,1.0694444444444444,0.06954402251529279,0.9304559774847072,2.5937147948281916,1,87.36439990956569,1.2291972510283813,1,15,89.61082657909719,56,88.37994320591679,0.26785714285714285,0.0010478210039517322,0.9989521789960483,6.8599941350747065,1,97.49993797537172,2.1306116498890333,0,72,100.65305666922359,51,98.51956778700696,1.411764705882353,0.8125557581401136,0.1874442418598864,-1.466703112814534
19,1,82.68966345506487,0.6619747856166214,1,55,84.37564730813028,95,83.71052783360938,0.5789473684210527,8.463428982463661e-05,0.9999153657101754,9.377086418523282,0,88.17662761354586,1.962464029667899,1,40,91.16327532776631,15,89.19801702874247,2.6666666666666665,0.40429997225953596,0.595700027740464,0.38758012316932505,1,92.1126849479624,1.2798038282780908,1,46,94.41427838866366,40,93.13281095674029,1.15,0.492156053248723,0.507843946751277,0.03137836135026842,1,103.15339049609611,2.279756815987639,1,33,106.45665228116559,25,104.17387838114519,1.32,0.18916055223332073,0.8108394477666793,1.4554739291192202
20,0,93.90115879412042,0.646494304004591,1,12,95.56760251446394,23,94.91823532385752,0.5217391304347826,0.00014541804376932976,0.9998545819562307,8.835752474495623,0,100.68903135682922,0.978017202578485,1,56,102.68493101437343,59,101.70610472606495,0.9491525423728814,0.007889061516686557,0.9921109384833134,4.834357752317946,0,103.94130098464666,1.1291420214110985,0,87,106.08920684305485,76,104.9581669465988,1.144736842105263,0.8978771518129396,0.10212284818706036,-2.1738567743794674,1,115.98298193939263,1.8125429628998972,1,12,118.81565525679616,9,116.99987674085423,1.3333333333333333,0.051706527240696465,0.9482934727593035,2.9090799989861087
21,0,98.08289771224372,0.6626266369712539,1,60,99.76918260211824,61,99.10358549834928,0.9836065573770492,0.00741226810966944,0.9925877318903306,4.897178923359061,0,105.18808162916685,0.8453615048783831,1,7,107.05734948557802,54,106.20907440269366,0.12962962962962962,4.406559964698076e-07,0.9999995593440035,14.635000878599845,0,108.59050857042894,1.2294121644226834,0,28,110.84205010009464,18,109.6109375913511,1.5555555555555556,0.43543416398257595,0.564565836017424,0.2597133924630511,0,121.31591560225934,1.3960474895429797,1,54,123.73552613490028,80,122.33634304290172,0.675,0.0879113365120584,0.9120886634879416,2.3394084371524144
22,0,102.26934181182878,0.7786245699971914,1,41,104.07214769604616,22,103.29039977054344,1.8636363636363635,0.020083970779272375,0.9799160292207276,3.8875448602791414,0,109.55786938639358,0.61293699714588,1,37,111.19402414298384,52,110.5778622594662,0.7115384615384616,0.0004431787228470485,0.999556821277153,7.721094154744648,0,113.34378125920193,0.8289253697148524,0,68,115.19519154942827,63,114.36461087240605,1.0793650793650793,0.670866360331382,0.329133639668618,-0.7121060843155261,0,126.23562687559752,1.2291257448960096,0,95,128.48831289814552,16,127.25632177281659,5.9375,0.9979885062725641,0.0020114937274359687,-6.2068641654328385
23,1,106.58875054714736,0.6617444648290984,1,12,108.27473202982219,9,107.61003290070221,1.3333333333333333,0.0006520312538066397,0.9993479687461934,7.334765817981591,1,113.69410315528512,0.6787684513255954,1,55,115.39638052630471,95,114.7147462994908,0.5789473684210527,9.630961607443034e-06,0.9999903690383926,11.550517850737595,1,117.69658177054953,0.9287293402594514,0,94,119.64813459897414,46,118.71746234665625,2.0434782608695654,0.9989594141409529,0.0010405858590471352,-6.866930270786133,0,130.98886479897192,1.496146175893955,0,96,133.50843653659103,89,132.00926340010483,1.0786516853932584,0.8750484587554268,0.12495154124457317,-1.9463532741634642
24,1,110.77522546151886,1.7791278781951405,1,41,113.57841534540057,7,111.79612381540937,5.857142857142857,0.0928481181638734,0.9071518818361266,2.279344871155936,1,117.89664561254904,1.5961310845450498,0,82,120.51664788811468,40,118.91742584301392,2.05,0.9862679868228854,0.013732013177114635,-4.2741982743967375,1,122.14967731380602,0.7124185975408182,0,58,123.88414586929139,6,123.17003956931876,9.666666666666666,0.9973553887976704,0.0026446112023296325,-5.9325831035603915,0,136.00889085722156,1.4791601152392104,1,55,138.51166655868292,60,137.02962802600814,0.9166666666666666,0.26390225947625356,0.7360977405237464,1.025784104198513
25,0,116.0789210240473,0.6624729580362327,1,77,117.76431505038636,72,117.09906797105214,1.0694444444444444,0.03773501767504672,0.9622649823249533,3.238701348002724,1,123.01678220898611,0.9119921682868153,1,42,124.95220428466564,67,124.03759364929283,0.6268656716417911,8.815482399293639e-05,0.9999118451760071,9.33632776708728,1,126.38585371978115,0.8237571762874722,0,42,128.23729245446157,39,127.41163384757238,1.0769230769230769,0.36667036608245884,0.6333296339175412,0.5465277759032804,0,141.01224137307145,1.379269231169019,0,53,143.4149827832589,15,142.03278693708126,3.533333333333333,0.8087033736609593,0.19129662633904063,-1.441606950957969
26,0,120.26504630909767,0.5793259620550089,1,56,121.86753274663351,59,121.28499730565818,0.9491525423728814,0.0047234761671239855,0.995276523832876,5.35047560733007,1,127.45333929616027,1.212596375204157,1,69,129.68926760356408,61,128.4735889591393,1.1311475409836065,0.08661034661830325,0.9133896533816968,2.3557432887057352,0,130.73859220650047,1.462508671625983,1,12,133.22362925537163,3,131.75948265916668,4.0,0.26762635614502206,0.7323736438549779,1.006699011924613,1,145.9153343879152,1.5786887279246002,0,53,148.51598497503437,40,146.93656419828767,1.325,0.48579969570809234,0.5142003042919077,0.05681649641387996
27,1,124.36789857345866,0.5284866935689934,1,42,125.9200794705539,67,125.38856779172784,0.6268656716417911,0.0001944358158352255,0.9998055641841648,8.54521399035119,1,132.18993841781048,1.0123381630983204,1,3,134.22545522928704,18,133.21024892030982,0.16666666666666666,0.00012204552102457189,0.9998779544789754,9.010994406702736,0,135.72531814291142,0.9791913250810467,1,28,137.72660880855983,41,136.74542834924068,0.6829268292682927,0.047139521386249106,0.9528604786137509,3.0063567462140597,0,151.0188768246444,1.9794054483645596,1,14,154.02235257497523,7,152.0398526104982,2.0,0.07179518690895914,0.9282048130910409,2.559434973083515
28,0,128.4205436676857,0.5126293233479373,1,78,129.95579539291793,65,129.440375750768,1.2,0.08937605750798472,0.9106239424920153,2.321277182448361,1,136.72606559918495,1.2456950157065876,1,87,138.99529205309227,89,137.7467360025621,0.9775280898876404,0.029951119900379575,0.9700488800996204,3.47777974588749,1,140.22848574537784,0.7622646816889755,1,88,142.01313579204725,96,141.24911111179972,0.9166666666666666,0.486031990865346,0.513968009134654,0.055886577920647953,1,156.528227533272,2.21347854740452,0,54,159.75910063483752,31,157.54288273159182,1.7419354838709677,0.6450844855080442,0.35491551449195585,-0.5975015196964085
29,1,132.4565306022414,0.5121370768174529,1,58,133.99185659899376,58,133.4767225862597,1.0,0.007322888444929676,0.9926771115550703,4.9094006001281505,1,141.49584197858348,1.8134934806730598,0,58,144.33246472495375,6,142.51600393798435,9.666666666666666,0.994339718409553,0.00566028159044691,-5.168605275350635,1,144.51444463053485,0.8627963553299196,0,32,146.39928462274838,16,145.53449873812497,2.0,0.6487829582230457,0.35121704177695434,-0.6136938508400926,0,162.25983268360142,1.2963596670888364,1,7,164.57926117198076,54,163.27992590231588,0.12962962962962962,0.0020647688766196604,0.9979352311233803,6.180670079537594
30,1,136.49797452008352,0.578945517889224,1,10,138.09463814739138,44,137.51282606390305,0.22727272727272727,1.0961678990617507e-05,0.9999890383210094,11.421094133863528,0,146.83266344084404,1.1461557364091277,1,58,149.00183901091805,58,147.85274401761126,1.0,0.014528559419270448,0.9854714405807296,4.2170038191490695,1,148.90101578191388,0.812802518310491,0,33,150.7355162583408,25,149.92087867978262,1.32,0.42496173356379563,0.5750382664362044,0.30243746270953953,0,167.07980556658003,2.3134448881610297,1,60,170.4159807083779,61,168.09996278525796,0.9836065573770492,0.37489042600457767,0.6251095739954223,0.5112931668112741
31,1,140.59533622092567,0.5287691624835134,1,87,142.14749420440057,89,141.6157687974046,0.9775280898876404,0.032545804025158165,0.9674541959748418,3.392019629373716,0,151.50248335604556,0.9289359573740512,1,55,153.45493415906094,60,152.5232580556767,0.9166666666666666,0.005307667723676079,0.9946923322763239,5.233280960195689,1,153.2371940841549,0.6280603432678618,0,66,154.88814705132972,59,154.25813470961293,1.11864406779661,0.7052653892797612,0.29473461072023877,-0.872498843914173,1,172.91649152280297,2.280229704512749,0,46,176.21998560399516,36,173.9369916547439,1.2777777777777777,0.34949317181969375,0.6505068281803063,0.621267770229341
32,1,144.64847553696018,0.6125012444099411,1,50,146.28347513399785,62,145.66792006482137,0.8064516129032258,0.00126211859595049,0.9987378814040495,6.673700628935839,0,155.95552122034132,1.6483767716563307,0,86,158.6252846417483,59,156.97394846501993,1.4576271186440677,0.8479437788235762,0.1520562211764238,-1.718564006417318,1,157.3900599387125,1.1985878924606368,1,26,159.60819784039631,84,158.4078001715825,0.30952380952380953,0.00021200896386419643,0.9997879910361358,8.458669970366909,0,178.72084012185223,1.7291984361945651,0,77,181.47382876143092,72,179.74163733999012,1.0694444444444444,0.686209044239962,0.313790955760038,-0.7824552923042938
33,1,148.78389824478654,1.3797567369765602,0,97,151.18649743287824,61,149.80391798209166,1.5901639344262295,0.7823241359527773,0.21767586404722267,-1.2792620566249175,0,161.12570103647886,1.246176595625002,0,50,163.39324334362755,7,162.14606645249296,7.142857142857143,0.9623362921181369,0.03766370788186311,-3.240666990434698,0,162.10972159227822,1.87940118170809,1,45,165.01176611415576,42,163.13053935364587,1.0714285714285714,0.3943988040481452,0.6056011959518548,0.42885908655111993,1,183.97430915612495,1.879997329437174,1,25,186.8774211339187,37,184.99458212777972,0.6756756756756757,0.043363650531961895,0.9566363494680381,3.093801784309085
34,0,153.68729980260832,1.6964640422957018,1,62,156.40703612280777,16,154.70773751486558,3.875,0.5649515862635512,0.43504841373644876,-0.26128271860429025,1,165.89558645285433,1.329949764010962,1,66,168.24849758145865,59,166.91550386924064,1.11864406779661,0.06598589705579838,0.9340141029442016,2.6500504994061975,0,167.51335821166867,0.7456748675904237,0,62,169.28270950500155,16,168.53371691162465,3.875,0.9953810537228192,0.004618946277180796,-5.372959031863008,0,189.37790508416947,1.8799021195736714,0,80,192.28110753098736,60,190.39832185814157,1.3333333333333333,0.8636986019977727,0.13630139800222726,-1.846355272212048
35,0,158.90734861639794,1.2294939421117306,1,53,161.16000975010684,15,159.92757694609463,3.533333333333333,0.24344549821433337,0.7565545017856666,1.133881484459273,1,170.74866706278408,1.413083327934146,0,98,173.18507442169357,73,171.76896373811178,1.3424657534246576,0.8597045169601117,0.14029548303988829,-1.812837953699968,0,171.7818265427486,1.1470722788362764,0,96,173.95019618747756,89,172.80195650213864,1.0786516853932584,0.8858653161588954,0.11413468384110464,-2.0491857374357703,1,194.78187316004187,1.7967306297505274,1,50,197.6011977472226,62,195.80149309511762,0.8064516129032258,0.15186010528633154,0.8481398947136685,1.7200858552703742
36,0,163.66058811999392,0.878955157357268,1,15,165.5630514069344,42,164.6812403505901,0.35714285714285715,3.1295239085182835e-05,0.9999687047609148,10.372013282163353,1,175.68556706327945,0.9464636472403072,1,43,177.65484234679025,97,176.70528023288352,0.44329896907216493,4.881358897090848e-07,0.9999995118641103,14.532671519202129,0,176.45260566705838,1.0615786180133,1,37,178.5376035257941,52,177.47410293400753,0.7115384615384616,0.0525410306847216,0.9474589693152784,2.8921892306576686,0,200.10188080841908,2.0245664991089143,1,56,203.15507424785756,59,201.12754518317524,0.9491525423728814,0.29923118072875854,0.7007688192712415,0.8509615912472168
37,0,168.06360370281618,0.6451854655169882,1,59,169.7324932483607,65,169.08441751351347,0.9076923076923077,0.004098762106336973,0.995901237893663,5.492963091088761,0,180.15491859364556,0.8960913413902745,1,45,182.07436715113,42,181.17531324422453,1.0714285714285714,0.015236261720470767,0.9847637382795292,4.168723526549821,0,181.03909843822476,1.0288853105157614,1,38,183.09038531128317,43,182.05988380452618,0.8837209302325582,0.1599266990549817,0.8400733009450183,1.65877357170651,0,205.6553808155004,1.2624807802494615,0,86,207.94161268812604,59,206.676236502768,1.4576271186440677,0.930578231414898,0.0694217685851019,-2.595605660445457
38,0,172.23305976646952,0.5455146306776442,1,62,173.80237605737057,17,173.25356898480095,3.6470588235294117,0.5384413351977319,0.46155866480226815,-0.1540693859960775,1,184.57465633610263,0.8287720858934335,1,25,186.42723719327478,37,185.59545197396073,0.6756756756756757,0.0004830652591081286,0.9995169347408919,7.634875619440679,0,185.59185810020426,0.7455650405609049,1,60,187.3599041106645,61,186.61233373836149,0.9836065573770492,0.4211162528253706,0.5788837471746294,0.31819274479049725,1,210.44207965070382,1.1127177380840294,1,43,212.57792151870672,97,211.46216062252643,0.44329896907216493,0.009736612347517215,0.9902633876524828,4.622077706985926
39,1,176.30248825479066,0.5288094587158412,1,24,177.8546249049832,69,177.32288211520063,0.34782608695652173,7.776505358103591e-06,0.9999922234946419,11.764395726914211,0,188.92739719315432,1.1969207333168015,0,62,191.14754279702902,16,189.9474532760796,3.875,0.9857606364247694,0.014239363575230578,-4.23740335065001,1,189.86168860306498,0.6290878980071284,1,28,191.51265065663029,82,190.88180473534157,0.34146341463414637,0.000369663729582137,0.9996303362704179,7.902547072465675,1,215.07811904943082,1.7301130033447407,0,62,217.8315643800306,43,216.09839597163955,1.441860465116279,0.6894058075488243,0.3105941924511757,-0.7973428654093008
40,1,187.38019367487868,1.0618820252129808,0,98,189.4625663505285,73,188.39765183394775,1.3424657534246576,0.5398236937350159,0.46017630626498407,-0.15963290262321386,1,200.6722333453945,0.943992142973002,1,14,202.6375979159493,8,201.69057170127053,1.75,0.008135642836018198,0.9918643571639818,4.803331602634173,1,201.03984944999684,1.1784089454449713,1,14,203.23727665201295,8,202.05710217705928,1.75,0.21644393761360892,0.7835560623863911,1.2865110477733048,0,227.35668317502132,1.8124181235325523,0,78,230.19015530659817,34,228.3743199018063,2.2941176470588234,0.9598804310757562,0.04011956892424386,-3.1749445073659257
41,0,191.96291518979706,0.8293299126671627,1,60,193.81538068904774,40,192.983156161441,1.5,0.06625459845696469,0.9337454015430353,2.6456989385865723,1,205.13842596468749,0.7293540904065594,1,42,206.890931839298,39,206.15855197352357,1.0769230769230769,0.013619517985551055,0.986380482014449,4.282538254663764,0,205.73909432959044,0.8795939717092551,0,80,207.6404301112634,60,206.75888256088365,1.3333333333333333,0.9513888522928703,0.04861114770712968,-2.974069985474824,0,232.6903757508262,2.396182205469813,0,41,236.11067606072174,22,233.71146373415831,1.8636363636363635,0.41178806257547895,0.588211937424521,0.3565785149832184
42,0,196.31575797271216,1.3624921580194496,0,43,198.70201188971987,7,197.3366029932513,6.142857142857143,0.1250467054060953,0.8749532945939047,1.9454831965622053,0,209.3912929254002,0.8956761318258941,1,41,211.31078968034126,22,210.41187483508838,1.8636363636363635,0.19269439888207718,0.8073056011179228,1.4325967759838796,1,210.14200522110332,0.9962093856884167,0,82,212.15995404642308,40,211.1620107361814,2.05,0.9965971721976602,0.0034028278023397734,-5.679739855877228,1,238.6109206037363,1.1951595495338552,1,15,240.83053761540214,19,239.6321567351115,0.7894736842105263,0.040551236063286145,0.9594487639367139,3.1637926527655793
43,0,201.20256537076784,0.6792215867899358,1,14,202.90500590216834,57,202.22278619429562,0.24561403508771928,5.303469059136923e-06,0.9999946965309409,12.147144108580804,0,213.81088291486958,0.6786092416150495,1,12,215.513088779815,23,214.83169870090205,0.5217391304347826,0.00035339160755620824,0.9996466083924438,7.947580292014283,1,214.66168915614253,1.6802195119089447,0,56,217.36338618199807,46,215.6814370912034,1.2173913043478262,0.6981550437477148,0.30184495625228525,-0.8385277081571059,1,243.3308153435937,0.8962264523725025,1,3,245.24999802472303,18,244.35076515498804,0.16666666666666666,0.011178930254879593,0.9888210697451204,4.482482615547778
44,0,205.40519197611138,1.0626365924836136,1,37,207.49167763616424,52,206.42582682403736,0.7115384615384616,0.0004213319275568894,0.9995786680724431,7.771668187713079,0,218.01371218671557,1.012914952763822,0,62,220.04954504728084,17,219.03378486220026,3.6470588235294117,0.982991894803789,0.017008105196210984,-4.0569108680634764,0,219.8651489460026,1.462827486160677,0,41,222.35004179744283,22,220.88550330029102,1.8636363636363635,0.790005363978329,0.209994636021671,-1.324957747646703,1,247.7503543701023,0.8620654917322099,1,17,249.63600818888517,82,248.7711148475646,0.2073170731707317,0.001217121720608061,0.9987828782793919,6.710048590029807
45,1,209.99188464833423,0.6456528232083656,1,28,211.65935157774948,82,211.0119956448325,0.34146341463414637,3.7624152087190055e-06,0.9999962375847913,12.490445701609566,1,222.54940559057286,1.7463101263856515,1,54,225.31959954992635,31,223.57055599364685,1.7419354838709677,0.44585571843124416,0.5541442815687558,0.2174296904773885,1,224.8517753269407,1.1789043524768203,1,19,227.05336805654224,37,225.87256108829752,0.5135135135135135,0.018771617889150938,0.9812283821108491,3.9564591955207584,0,252.13659683038713,0.8795698729227297,1,7,254.03927937638946,54,253.15657192567596,0.12962962962962962,0.0020647688766196604,0.9979352311233803,6.180670079537594
46,0,214.1611317245406,0.5959623933304101,1,38,215.77887543395627,43,215.1812225728063,0.8837209302325582,0.0013055592718627107,0.9986944407281373,6.639817356942235,0,227.82035648764577,0.9292488460196182,1,71,229.77297835220816,69,228.84069740981795,1.0289855072463767,0.033477801179620514,0.9665221988203795,3.3628216988156474,1,229.55502138857264,0.9129174021072686,1,6,231.48966321803164,8,230.5748736198293,0.75,0.07204793410380539,0.9279520658961946,2.5556484293794153,0,256.53979019081453,0.7795450630947016,1,24,258.34210145811085,90,257.55948242219165,0.26666666666666666,0.0016832484783632085,0.9983167515216368,6.385345067793869
47,0,218.28063424734864,0.5064110566745512,1,54,219.81495165236993,80,219.3068931896123,0.675,0.0003575716121254624,0.9996424283878745,7.935817266696555,0,232.2732509446214,1.2957970995921642,0,78,234.592708272452,34,233.2939861380728,2.2941176470588234,0.9888315402163559,0.011168459783644148,-4.483430268751234,0,233.99122252542293,0.7959883093135431,1,14,235.8094081505551,57,235.01152394147357,0.24561403508771928,0.0007936646320012564,0.9992063353679987,7.138055584025433,1,260.84247874177527,0.5455434701871127,1,40,262.41142209467944,93,261.8627975405543,0.43010752688172044,0.008775418401247403,0.9912245815987526,4.726986680575683
48,0,222.3166749102529,0.6457049713353626,1,58,223.98441877769073,58,223.33677207957953,1.0,0.007322888444929676,0.9926771115550703,4.9094006001281505,1,237.09323646954726,0.8128526910440996,1,17,238.9288016365026,82,238.11313768837135,0.2073170731707317,2.4997671266291377e-08,0.9999999750023287,17.504483140767555,0,238.31061506317928,1.1247426174813882,0,56,240.46214165951824,59,239.33563548786333,0.9491525423728814,0.32873260658620895,0.671267393413791,0.7139228830934645,0,264.9118823412573,0.8959230451728217,1,6,266.830995096534,26,265.932126868458,0.23076923076923078,0.009782578921879281,0.9902174210781207,4.617321393537515
49,0,226.48609699861845,0.7739924748311751,1,28,228.28713616816094,18,227.51148957113037,1.5555555555555556,0.0035800486578859703,0.996419951342114,5.628792414705504,1,241.42904222890502,1.129489280458074,0,97,243.58203331788536,61,242.4494684843812,1.5901639344262295,0.9772531047790775,0.022746895220922537,-3.760317019447185,1,242.9650465461309,1.2122965236194432,1,43,245.19801584351808,97,243.98421255563153,0.44329896907216493,0.0006655682203174917,0.9993344317796825,7.314203625705205,0,269.3313269481296,1.08341484767152,0,62,271.4342732371297,17,270.34778441657545,3.6470588235294117,0.9133864859610008,0.08661351403899917,-2.3557032506760227
50,0,230.7888538952102,0.7647662105737254,1,53,232.57339134940412,57,231.80670909094624,0.9298245614035088,0.0035514502930508174,0.9964485497069492,5.63684145400428,0,246.08261010755086,1.4963397560059093,1,28,248.60213246248895,18,247.10264999297215,1.5555555555555556,0.027916432695219928,0.9720835673047801,3.550226274423035,1,247.7002617676626,0.7960064822109416,1,15,249.5183415163192,19,248.72036209749058,0.7894736842105263,0.08006376973939744,0.9199362302606026,2.4414809138230233,1,273.9349337798194,1.1458550945972092,1,4,276.10351162194274,22,274.955051887373,0.18181818181818182,0.009879695225368468,0.9901203047746315,4.607344792070849
51,1,235.07522166892886,0.5626413332065567,1,42,236.6596083677141,39,236.0951438260381,1.0769230769230769,0.003898564536864657,0.9961014354631353,5.543240677321899,1,251.1025334498845,0.612020849774126,1,4,252.73820544144837,22,252.1233124951832,0.18181818181818182,7.376638773393118e-05,0.9999262336122661,9.51453361175818,1,252.0198652682011,0.9125496000051498,0,97,253.95443203597097,61,253.03995335113723,1.5901639344262295,0.996133638905434,0.0038663610945659285,-5.551567645137764,0,278.6042713250499,2.0963870843406767,1,45,281.7242254031007,42,279.62498834572034,1.0714285714285714,0.25053237402364203,0.749467625976358,1.095774972655007
52,0,239.1612198232324,0.5628357034293003,1,45,240.74596405256307,92,240.1813331900048,0.4891304347826087,2.1993210032711374e-05,0.9999780067899673,10.724754793668373,1,255.2385384782101,0.9124354272498749,1,75,257.1748565532034,70,256.25917569646845,1.0714285714285714,0.06479173006984262,0.9352082699301574,2.6695912802374786,1,256.45621455309447,0.9809351261937991,0,72,258.45916092110565,51,257.4763709816034,1.411764705882353,0.941569276641315,0.05843072335868502,-2.779706090119108,0,284.224683279288,1.0289892116561532,1,53,286.27735286729876,57,285.2452383248019,0.9298245614035088,0.25431218619672435,0.7456878138032756,1.0757444406267365
53,1,243.24725827376824,0.49588701559696347,1,17,244.76494477828965,82,244.26731988752726,0.2073170731707317,5.99790438648995e-07,0.9999994002095614,14.326684911866582,0,259.67513941717334,0.8126132838660851,1,14,261.5108523371164,57,260.6950023150421,0.24561403508771928,1.1829911755745215e-06,0.9999988170088244,13.647463249366167,0,260.9585793907172,0.911969254782889,0,51,262.8937478369917,7,261.97990638623014,7.285714285714286,0.991010506399618,0.008989493600382056,-4.702668618405001,0,288.77602901647333,0.8964457114343531,1,45,290.68008953676326,92,289.7808989385958,0.4891304347826087,0.01642124371053355,0.9835787562894664,4.092621867398706
54,1,247.26657282636734,0.712381461809855,1,46,249.0010239991825,36,248.28693034115713,1.2777777777777777,0.010416662144382416,0.9895833378556176,4.553877330309811,1,264.0112375220051,0.6619182918220758,1,50,265.69714749854757,62,265.0320260487497,0.8064516129032258,0.0012461873406062196,0.9987538126593938,6.686419551824543,0,265.3954489714815,1.0294660507934168,0,95,267.44680221483577,16,266.4157203628565,5.9375,0.9999752868593194,2.4713140680689512e-05,-10.608150730988212,1,293.1808117090259,0.6953874999308027,1,26,294.8996453139116,84,294.20145643345313,0.30952380952380953,0.003030621655718879,0.9969693783442811,5.7959522903117024
55,0,251.5028590594302,0.6124024791060947,1,7,253.13719850883354,54,252.5229400312528,0.12962962962962962,2.273881566150493e-06,0.9999977261184338,12.994019971836094,1,268.1974445847445,0.5960098006762564,1,15,269.8161083922023,42,269.217242692539,0.35714285714285715,2.2061703029652158e-05,0.9999779382969703,10.721645285278713,0,269.94862265785923,0.6623066371539608,0,53,271.6329583146726,15,270.96876130858436,3.533333333333333,0.9831199511274232,0.016880048872576794,-4.064598753806177,0,297.39994200499495,0.7958670255029574,1,12,299.2197327647009,23,298.42065270472085,0.5217391304347826,0.023017878115914603,0.9769821218840854,3.7481971295143457
56,1,255.63898734695977,0.44541554927127436,1,54,257.10671319958055,31,256.6593049605144,1.7419354838709677,0.06402207363022272,0.9359779263697773,2.6823639688938314,1,272.31661328068003,1.2297582381870598,1,56,274.569441525382,46,273.336764968466,1.2173913043478262,0.07670687107946039,0.9232931289205396,2.4879554786930282,0,274.1346792022232,0.912753451615572,1,6,276.06947154999943,26,275.15484037145507,0.23076923076923078,0.008967011193761198,0.9910329888062388,4.705195401880217,1,301.7199058015831,1.5133084339322522,0,74,304.2561317482614,60,302.739805835241,1.2333333333333334,0.7607947829928426,0.23920521700715738,-1.157041821873513
57,1,259.6083001613151,0.5631248884019442,1,16,261.1929681437905,10,260.6281780715217,1.6,0.0011415161208854219,0.9988584838791146,6.774255801402221,1,277.0699677472003,1.1464346497668885,0,41,279.2392606504727,7,278.0899357314338,5.857142857142857,0.7815616931931895,0.21843830680681056,-1.2747904628141138,0,278.57101189449895,2.046619617496617,1,58,281.6399738152977,58,279.59158550784923,1.0,0.43113564259203563,0.5688643574079644,0.277219261441892,0,306.75657421705546,0.8626414912287146,1,28,308.6423975171638,41,307.7766622999334,0.6829268292682927,0.04793018881069133,0.9520698111893087,2.9888928107193156
58,1,263.6943710069172,1.0796115914126858,0,82,265.7960610006121,40,264.7144776576897,2.05,0.7362910550253831,0.26370894497461694,-1.026779481944443,1,281.73988761293003,0.7961388277471997,1,12,283.5593315087026,9,282.75983110332163,1.3333333333333333,0.004404626157737956,0.995595373842262,5.420685535803061,1,284.14136680186493,0.9626852640649304,1,98,286.1261186163756,73,285.16150505753467,1.3424657534246576,0.9863082909446923,0.01369170905530766,-4.277178502838,0,311.1428680352983,1.4292022287845612,1,35,313.59542629501084,62,312.1633815993555,0.5645161290322581,0.030967211994496258,0.9690327880055037,3.4433694811167066
59,0,268.2971553207608,1.095506887533702,1,12,270.41450436384184,3,269.31768942798954,4.0,0.00123989759279175,0.9987601024072083,6.69148582233212,1,286.0592726445175,0.9295735865016468,1,88,288.0113560404279,96,287.07922680157935,0.9166666666666666,0.010741973188906906,0.9892580268110931,4.522796398702048,0,288.6280390099273,1.1297804406494834,0,62,290.779415482888,17,289.6476466981112,3.6470588235294117,0.9947982236621257,0.005201776337874298,-5.253539755612964,0,316.0946966165793,1.4459895735490136,1,9,318.54912154143676,7,317.10001453827135,1.2857142857142858,0.0417318568086652,0.9582681431913348,3.1338628483656303
60,1,279.9250126024126,0.7456472133053467,1,43,281.69008854113054,97,280.9426224650815,0.44329896907216493,9.214867495055401e-06,0.999990785132505,11.59468313130283,1,297.5370650571422,0.9952395099098794,1,46,299.5530342297279,40,298.55473615427036,1.15,0.02687521497774703,0.973124785022253,3.589307836085589,1,300.31135145766893,1.1301810329314321,1,3,302.4537051229854,18,301.32164201745763,0.16666666666666666,0.014403614974885404,0.9855963850251146,4.225767709982149,1,328.07400962058455,1.8956148972501978,0,98,330.98893116926774,73,329.0919149891124,1.3424657534246576,0.9583182055983318,0.041681794401668165,-3.135115430594293
61,0,284.1913637993857,1.1295947618200444,0,51,286.3427505439613,7,285.21144516626373,7.285714285714286,0.35205087223436293,0.6479491277656371,0.6100364981872906,1,302.053525291034,0.7955944331479259,1,45,303.8724334835424,40,303.07380102813477,1.125,0.02171625788763154,0.9782837421123685,3.8077385613767722,0,304.9553580599604,0.9454921912401915,0,78,306.9230740360799,65,305.9759391794796,1.2,0.8869230092603217,0.11307699073967821,-2.059689258823076,1,333.4911130934488,0.9960734845953993,1,37,335.510230905551,54,334.5112383121159,0.6851851851851852,0.0609907665449545,0.9390092334550455,2.734102827844873
62,0,288.84451054257806,0.8292639373685233,1,45,290.6957687342074,60,289.86466934147757,0.75,0.0006791914085816364,0.9993208085914184,7.293928150203906,0,306.3728743720567,0.6291779720340855,1,54,308.0253234367701,80,307.39313193631824,0.675,0.00011602819081224514,0.9998839718091878,9.061561337217421,1,309.42529151577037,1.1797083024284802,1,42,311.6264820728684,67,310.4450011298759,0.6268656716417911,0.02003045732411679,0.9799695426758832,3.8902675109045144,1,338.010797818657,1.5790624560322613,1,46,340.61392070015427,40,339.03184195020003,1.15,0.29712721772087836,0.7028727822791216,0.8610155218088366
63,1,293.19746591802686,0.795411124592647,1,33,295.01541964209173,25,294.2180533585488,1.32,0.0038931669696946614,0.9961068330303053,5.544631556478696,0,310.52545104164165,0.9960651882574894,1,60,312.54519621119834,70,311.54589151928667,0.8571428571428571,0.002609321921115848,0.9973906780788842,5.946052159605163,1,314.12828671344323,1.2630713970866054,0,46,316.4129138465505,36,315.1481887223781,1.2777777777777777,0.609758867580396,0.390241132419604,-0.44629874364990724,1,343.1143457862199,1.429541981604416,0,41,345.56680883612717,7,344.1343801407493,5.857142857142857,0.6323881064132714,0.36761189358672863,-0.5424755534398904
64,1,297.51706349267624,0.5124100642860867,1,37,299.0513761569164,54,298.5372108347947,0.6851851851851852,0.0003400441979078961,0.9996599558020921,7.986094852929736,0,315.0453826801968,1.2796888654702343,1,22,317.3479894534685,31,316.0656335284002,0.7096774193548387,0.0007406711336939154,0.9992593288663061,7.207212899795024,0,318.91446841321886,1.0795365297235548,1,71,321.0162425550516,69,319.9348200020613,1.0289855072463767,0.6157427340080781,0.3842572659919219,-0.47151694491755297,0,348.067683107045,1.5626567405997775,1,37,350.65434101386927,52,349.0882156340522,0.7115384615384616,0.0682282644467812,0.9317717355532188,2.614228952055125
65,1,301.5529319087509,0.4796567074372433,1,56,303.0540112165618,46,302.57288922631415,1.2173913043478262,0.018767140917441028,0.981232859082559,3.9567022834233168,0,319.848514095007,1.6460628969362006,0,14,322.5184552940773,7,320.86933857237455,2.0,0.009729273686715612,0.9902707263132844,4.622839120047637,1,323.5180234918953,1.912700908491388,0,53,326.45302798767807,55,324.53864095709287,0.9636363636363636,0.329119019940577,0.670880980059423,0.7121722961955805,0,353.15405894001015,1.2298127567046322,0,62,355.40701992536196,17,354.1742833190947,3.6470588235294117,0.9133864859610008,0.08661351403899917,-2.3557032506760227
66,1,305.5557048448245,0.596101454924792,1,53,307.1735571961617,55,306.5757850265363,0.9636363636363636,0.004397049488748417,0.9956029505112516,5.422414788787821,0,325.0185576149961,1.6128026762744412,1,45,327.6550884700846,60,326.0391636233544,0.75,0.0006002354105797414,0.9993997645894203,7.417588213107434,1,328.95483973936643,0.9792861397727393,1,52,330.95619835559046,68,329.9748314272729,0.7647058823529411,0.08141573674067037,0.9185842632593296,2.4232650601469152,1,357.90734150534263,1.7959345809649676,0,75,360.72740959812654,70,358.92832440236816,1.0714285714285714,0.6620757053764272,0.3379242946235728,-0.6725580179811972
67,1,309.67512914555846,0.6792401546263136,1,88,311.3759744189447,96,310.6950177224353,0.9166666666666666,0.018422610440762544,0.9815773895592375,3.975582120334351,0,330.1555376548786,1.813384048640728,1,87,332.99159111775225,85,331.17539857747033,1.0235294117647058,0.05975937099590112,0.9402406290040989,2.7558098155413617,1,333.4577789963223,0.9456075491616502,1,40,335.4252121084719,93,334.4780594740878,0.43010752688172044,0.0006667335982392109,0.9993332664017608,7.312453038807034,1,363.2276351781911,1.145655193598941,1,52,365.3972156861564,68,364.24842133460334,0.7647058823529411,0.13588037247292806,0.8641196275270719,1.8499363325267706
68,0,313.8778908618842,0.9953023247071542,1,55,315.89598862535786,60,314.8989831908839,0.9166666666666666,0.003594964297741088,0.9964050357022589,5.6246197772351625,1,335.492544005916,0.9295953148975968,1,16,337.443616044533,10,336.51232670631725,1.6,0.008771344684478377,0.9912286553155216,4.7274551172248875,0,337.92746277333936,1.1461324277333915,0,60,340.0956416034023,40,338.9473841403378,1.5,0.899312783861002,0.10068721613899803,-2.1896120564604247,1,367.89760126610054,2.213013560103718,1,14,371.13379821530543,8,368.9180749289808,1.75,0.06790203539137685,0.9320979646086232,2.6193719109783915
69,1,318.39764353760984,0.6225002488936298,1,15,320.0489714180585,42,319.42454366455786,0.35714285714285715,3.1295239085182835e-05,0.9999687047609148,10.372013282163353,0,339.9457078947453,2.0471663824864663,1,12,343.0153291730676,3,340.96524131140905,4.0,0.012897624125164597,0.9871023758748354,4.337730640283851,0,342.5973044169368,1.7298190777073614,0,87,345.3491849092534,85,343.6173111171811,1.0235294117647058,0.7500883019997495,0.2499116980002505,-1.0990832881290722,0,373.6346017702017,2.1290333795477636,1,71,376.7879776490154,69,374.6561729136738,1.0289855072463767,0.5678176335260753,0.4321823664739247,-0.27295265565038107
70,1,322.5503407009528,0.6617049586493522,1,46,324.2348098885268,40,323.5713101658621,1.15,0.0068086420273058,0.9931913579726942,4.982730660742668,1,345.5159644318628,0.6997394965146668,1,15,347.2350097896415,56,346.5321730116266,0.26785714285714285,1.7629151137787957e-06,0.9999982370848862,13.248540041526855,0,347.85040169843705,1.3628449478419498,1,53,350.2356715174392,57,348.8707201021025,0.9298245614035088,0.27868157758402545,0.7213184224159745,0.9510108486956683,1,379.2884477720945,1.1294055273756385,1,19,381.4411935279495,37,380.30880173132755,0.5135135135135135,0.022245579181471853,0.9777544208185281,3.7831152346476236
71,0,326.73674331908114,0.5285495083080605,1,22,328.2874490568065,31,327.7572351547424,0.7096774193548387,0.0003273508040670947,0.9996726491959329,8.024150762393433,0,349.73532741901,0.6789659820497036,1,35,351.4376134814229,62,350.7558125386131,0.5645161290322581,4.711460373618692e-05,0.9999528853962638,9.962880431193174,1,352.737083071901,0.7958279144368134,1,14,354.5551979810698,57,353.757562265615,0.24561403508771928,0.0007936646320012564,0.9992063353679987,7.138055584025433,1,383.94165653997334,1.8468892073724419,0,82,386.81137634656625,40,384.9614633391029,2.05,0.9635564006160501,0.036443599383949886,-3.2748651802223727
72,0,330.789182191249,0.7293153743376024,1,14,332.54039779520826,7,331.8091517557041,2.0,0.0011276654239374961,0.9988723345760625,6.786477478171213,0,353.9381361476262,0.662567772786133,1,7,355.62355822336394,54,354.9581752429367,0.12962962962962962,4.406559964698076e-07,0.9999995593440035,14.635000878599845,0,357.05695995496353,0.8124623704352416,1,78,358.891326110519,34,358.07698048237944,2.2941176470588234,0.9968640643159244,0.003135935684075592,-5.761686822574438,1,389.3119681485696,1.0123638421064243,1,10,391.34755251556635,44,390.3324113917188,0.22727272727272727,0.005289942202860054,0.99471005779714,5.23664397541956
73,0,335.0416714732419,0.6290562931098975,1,45,336.6933639953495,42,336.06233121000696,1.0714285714285714,0.004659910834185599,0.9953400891658144,5.364088163255952,0,358.12425669195363,1.2799172109225765,0,95,360.4272964525153,16,359.14438704639906,5.9375,0.9999893038637673,1.0696136232743223e-05,-11.445617285258813,1,361.39317381277215,0.9630759798455983,1,55,363.3778576767072,95,362.4130619945936,0.5789473684210527,0.005643120401673696,0.9943568795983263,5.17165900079581,0,393.8482122680871,1.9296474629663862,1,40,396.80167087278096,15,394.8689632640453,2.6666666666666665,0.4870265314174216,0.5129734685825784,0.051905524775523675
74,1,339.19492567313137,0.5788977154297754,1,15,340.7957413959084,19,340.21513582998887,0.7894736842105263,0.00036835071242358186,0.9996316492875764,7.906106632172956,0,362.9274852918461,1.4459903636598028,1,60,365.39677084703,40,363.9480510040303,1.5,0.3702189383216288,0.6297810616783712,0.5312776820091285,1,365.87904325604904,1.429507611261215,0,87,368.33105198532576,89,366.8996429434628,0.9775280898876404,0.6505382953783554,0.3494617046216446,-0.621406183128897,0,399.30185378622264,1.5295324211474508,0,78,401.85480465798173,65,400.32245979463914,1.2,0.7886653903803637,0.21133460961963638,-1.3168994326248342
75,1,343.29769418452634,0.7959859389811754,1,74,345.1153745261254,60,344.31758355151396,1.2333333333333334,0.07922426559971651,0.9207757344002835,2.4529338685947484,1,367.8973820070387,0.7290676708216779,1,33,369.6496271410142,25,368.91757754661376,1.32,0.023625489817667544,0.9763745101823325,3.7215200260728785,0,370.8329016628559,1.0964601706946269,1,7,372.9508922856767,54,371.85272861015983,0.12962962962962962,0.00037421979200391586,0.9996257802079961,7.8902929641809525,0,404.35512149723945,0.9456834009615704,1,22,406.32431737339357,31,405.3757045920356,0.7096774193548387,0.043988702868192786,0.9560112971318072,3.078836882109111
76,1,347.6217982247472,0.6785156120313331,1,4,349.318113328889,22,348.6379617674975,0.18181818181818182,4.258415061020315e-05,0.9999574158493898,10.063985840263586,0,372.15027780720266,0.7292170040309429,1,15,373.9026691139443,42,373.1704421369359,0.35714285714285715,2.2061703029652158e-05,0.9999779382969703,10.721645285278713,0,375.45258038310567,2.013038606964983,1,45,378.48760494805174,92,376.47268861415796,0.4891304347826087,0.0016590943939875924,0.9983409056060124,6.399822899053281,1,408.8249257680145,0.9788278685882688,1,14,410.8273380129831,57,409.84554757887963,0.24561403508771928,0.0038482470792317036,0.9961517529207683,5.556281867827232
77,1,351.82002108043525,0.6287742192507721,1,19,353.46986629540334,37,352.84018857066985,0.5135135135135135,0.00010429078339557751,0.9998957092166044,9.168223269933621,0,376.40325736039085,0.8127602467429824,1,28,378.23887665075017,41,377.42306376452325,0.6829268292682927,0.0004519199949803987,0.9995480800050196,7.701553373912949,1,380.98928277386585,0.9469645851058885,0,53,382.95781692216406,40,382.00962962198537,1.325,0.7463268185569596,0.25367318144304035,-1.079116847555078,0,413.327913222427,1.7134208683855832,1,28,416.0638956532348,18,414.34783498448087,1.5555555555555556,0.1665409647891306,0.8334590352108694,1.6103432391372157
78,0,355.9728407128132,1.128938959853258,0,96,358.1244135312736,89,356.99365017784294,1.0786516853932584,0.13128528307124088,0.8687147169287591,1.8896420937019356,0,380.7392602554173,1.9128984391572885,0,78,383.67584341659676,65,381.75994843657827,1.2,0.24752863109332646,0.7524713689066735,1.1118366914312852,1,385.4592529704678,1.1627447603386827,1,17,387.64407692319946,82,386.47935290518217,0.2073170731707317,6.457549524219175e-05,0.9999354245047578,9.647610972175674,0,418.5647655784851,2.013557717727963,1,12,421.6010341917863,3,419.5847106491565,4.0,0.07246288086591601,0.927537119134084,2.549458371616866
79,0,360.6260147152352,1.5132057179580443,0,50,363.16095710737864,7,361.64591909456067,7.142857142857143,0.3149738624551157,0.6850261375448843,0.7769673354841558,0,386.17631828045705,0.9794726087711751,0,51,388.178990080778,7,387.196505128697,7.285714285714286,0.9695012988143273,0.0304987011856727,-3.4590977157258718,1,390.1460348475375,1.595860862522386,1,45,392.76428305043373,40,391.1665156214731,1.125,0.45263729440171985,0.5473627055982802,0.19002053405103195,0,424.1021277218242,0.8956472923164256,1,45,426.0207683786866,60,425.1222813848872,0.75,0.10205106696141775,0.8979489330385823,2.1746398547627375
80,1,372.6872176298057,0.7115498575731181,1,75,374.4182973484858,70,373.7049732701271,1.0714285714285714,0.03362973677581138,0.9663702632241886,3.3581363573800247,1,397.7049369245069,0.9619275362929329,1,26,399.6866372846416,84,398.72174283716595,0.30952380952380953,1.2442139329937874e-07,0.9999998755786067,15.899591575145438,1,402.2903934495407,0.845207430946175,1,50,404.15514338354114,62,403.3081941268174,0.8064516129032258,0.11670253648001983,0.8832974635199802,2.0240337480481796,1,435.54684164200444,1.5783861108939163,0,94,438.14563820592593,46,436.5644033071585,2.0434782608695654,0.9865318829707542,0.013468117029245774,-4.293870453530198
81,1,376.9201114705065,1.029946050432045,0,94,378.97181078768335,46,377.94006997323595,2.0434782608695654,0.915805124218344,0.084194875781656,-2.3866695338575337,1,402.18715797556797,0.6461577116861008,1,37,403.8559874718194,54,403.20701613271376,0.6851851851851852,0.00030893239233453773,0.9996910676076655,8.082079119917736,1,406.6568180489121,0.8557452991954051,1,25,408.54111325141275,37,407.68374069430865,0.6756756756756757,0.047218215541656616,0.9527817844583434,3.0046061593161775,0,440.64613519317936,1.3792743670055643,1,58,443.0489544305019,58,441.66682930028765,1.0,0.3632574728944884,0.6367425271055116,0.5612535032394981
82,1,381.47330925561255,0.5619254819466732,1,40,383.05776034941664,93,382.49404049851,0.43010752688172044,8.575245907693763e-06,0.9999914247540923,11.66662231275871,0,406.3565018418012,1.066197281004861,0,43,408.4425880947383,7,407.37325837177923,6.142857142857143,0.8470504222502394,0.15294957774976056,-1.7116519133964667,1,411.04304273141315,0.9462554498459212,1,4,413.01115534920245,22,412.06305535754655,0.18181818181818182,0.010510622240446965,0.989489377759553,4.5448026422815575,1,445.54930208454607,1.0291665942640975,1,24,447.60179745045025,69,446.5697698214208,0.34782608695652173,0.005901267499095253,0.9940987325009047,5.126669372001498
83,1,385.5590545706218,0.7128440787200816,1,62,387.2940521133132,43,386.57922719663475,1.441860465116279,0.06701471156489025,0.9329852884351097,2.633477261817487,0,410.94298276113113,0.6793057348695584,1,53,412.64550032949774,57,411.9630921772914,0.9298245614035088,0.005889572014909916,0.9941104279850901,5.128664963018434,0,415.51276403927477,1.0618642474291846,1,55,417.5972984909895,60,416.53355296113295,0.9166666666666666,0.27052031313705804,0.729479686862942,0.9919843320442712,0,450.10248564742506,2.130407403106801,0,51,453.2540580708883,7,451.12235091568436,7.285714285714286,0.8443991590811881,0.15560084091881185,-1.6913313040041145
84,0,389.7955553220236,0.6291206881287508,1,9,391.44644270895515,7,390.8156690839096,1.2857142857142858,0.000489747046557909,0.9995102529534421,7.621131664655624,1,415.14560225530295,0.5625322962878272,1,54,416.7316932490212,78,416.1661434736452,0.6923076923076923,0.00016646210900095326,0.999833537890999,8.700576372045061,1,420.0992157240398,0.9961536820046604,1,10,422.1171191172907,44,421.1190920540248,0.22727272727272727,0.001984951877750829,0.9980150481222492,6.2201736835779915,1,455.7562257729005,1.0125657184398733,1,28,457.7922451024642,82,456.77670812705765,0.34146341463414637,0.004293683916844371,0.9957063160831556,5.446307264409142
85,1,393.94827539887046,0.6959275489207357,1,32,395.6657045604079,16,394.96852190140635,2.0,0.008606085309569855,0.9913939146904301,4.746642400301636,0,419.23178213788196,1.6627890071831644,0,96,421.9163959179423,89,420.2518500726437,1.0786516853932584,0.18065690756538844,0.8193430924346116,1.5119032182669085,0,424.61885422706837,1.2959156180731952,1,59,426.93705486453837,65,425.6391896184068,0.9076923076923077,0.27797832373580944,0.7220216762641906,0.9545120224914372,0,460.2926192256273,2.4306323510827497,0,62,463.74625718814787,16,461.312550469127,3.875,0.9180121972893699,0.08198780271063015,-2.415640188570897
86,1,398.1676786823082,0.7791025943006389,1,66,399.96880358015187,59,399.1880674069398,1.11864406779661,0.02457443364342493,0.9754255663565751,3.681167234361448,1,424.4186426321976,2.313576048531104,0,72,427.7555099215824,51,425.4388942705118,1.411764705882353,0.5260946978016412,0.4739053021983588,-0.10447371303311825,0,429.43901871482376,1.0116337686195038,1,22,431.4732729099924,31,430.46001267351676,0.7096774193548387,0.05929988581438306,0.9407001141856169,2.7640170199182053,1,466.2467944716918,1.4795927074737847,1,55,468.7492237043334,95,467.26676285098074,0.5789473684210527,0.04214513828567534,0.9578548617143247,3.1235769305191012
87,0,402.4706524676294,0.7118260054267012,1,78,404.20497722073924,34,403.4914560067118,2.2941176470588234,0.7315176413494582,0.2684823586505419,-1.0023361284062722,0,430.25606656313175,1.8635287991492078,1,68,433.14227070240304,63,431.2761704484583,1.0793650793650793,0.05044264530999154,0.9495573546900085,2.935158979169978,0,433.975080315955,1.7134208684437908,1,14,436.71037692017853,7,434.9949716582778,2.0,0.2373810624704198,0.7626189375295802,1.1670917715232614,0,471.2500410864013,2.1633507845108397,0,87,474.43685733387247,85,472.27044600853696,1.0235294117647058,0.759899910194679,0.24010008980532105,-1.1521308502351577
88,1,406.70679450326134,0.4789349302300252,1,54,408.20790502091404,78,407.72707261069445,0.6923076923076923,0.0004430474216313707,0.9995569525783686,7.721390601480132,1,435.64294191176305,1.2296859420021065,0,94,437.89554102078546,46,436.6628644639277,2.0434782608695654,0.9970187059546839,0.0029812940453160623,-5.81241208237165,0,439.21198758558603,0.7460691389278509,1,15,440.97966302838176,42,440.23189552046824,0.35714285714285715,0.005551477271681704,0.9944485227283183,5.188124267574028,1,476.9370852843276,1.5300084701157175,1,32,479.48993027961114,16,477.9570556388935,2.0,0.2629044131229511,0.7370955868770489,1.0309270631217768
89,0,410.7089309953735,0.6791876115021296,1,71,412.41051740403054,69,411.72942283103475,1.0289855072463767,0.019480923933401728,0.9805190760665983,3.918646373959263,1,440.39610200800234,0.9626753875054419,1,10,442.3822396979667,44,441.41624500445323,0.22727272727272727,5.1588904235178035e-06,0.9999948411095765,12.174783876892217,0,443.4802366575459,0.7454777319799177,0,86,445.23258569272,59,444.48542381398147,1.4576271186440677,0.9827973972606919,0.01720260273930804,-4.04534229792945,1,481.99077334062895,0.8789393549086526,1,15,483.8932654670789,42,483.0111265097512,0.35714285714285715,0.010536241795657708,0.9894637582043423,4.542342224347678
90,1,414.91229201987153,0.5951003693044186,1,14,416.53024708718294,57,415.93323383049574,0.24561403508771928,5.303469059136923e-06,0.9999946965309409,12.147144108580804,1,444.88240127812605,0.7235936998622492,1,28,446.6347720416379,82,445.9081027886714,0.34146341463414637,2.763091646595939e-07,0.9999997236908353,15.101745160023057,1,447.734688604658,2.0134747547563165,1,12,450.76986092253355,9,448.75421491020825,1.3333333333333333,0.15145755717065934,0.8485424428293407,1.7232146694248764,1,486.3934547015233,1.4633351400261745,0,97,488.8801423169789,61,487.4135882164701,1.5901639344262295,0.9767851171291777,0.023214882870822295,-3.7394731102763576
91,0,419.0317732094554,1.462966152757872,1,86,421.51668423367664,59,420.05193990957923,1.4576271186440677,0.4151900662730764,0.5848099337269236,0.3425504884241625,0,449.1351690783631,0.9736620454932563,1,59,451.18759925919585,65,450.2110840801615,0.9076923076923077,0.005158074668271673,0.9948419253317283,5.262020471963644,0,453.27131711895345,0.979396361974068,0,62,455.27265835244907,17,454.29156046098797,3.6470588235294117,0.9947982236621257,0.005201776337874298,-5.253539755612964,1,491.3799518973683,1.5460922105121426,0,66,493.94988961989293,59,492.40079533768585,1.11864406779661,0.5739276460306295,0.42607235396937043,-0.29789415931700813
92,0,424.0184343557921,1.0962108869571239,1,35,426.1363669045968,62,425.0384928090498,0.5645161290322581,0.00010331102033145356,0.9998966889796685,9.177663188388896,0,453.6882673080545,1.0289331129170023,0,62,455.7406220320845,17,454.70882709429134,3.6470588235294117,0.982991894803789,0.017008105196210984,-4.0569108680634764,0,457.77441795601044,1.0297706431592815,1,54,459.8258529770537,80,458.79434445878724,0.675,0.028222371287154213,0.9717776287128458,3.5390120297459142,1,496.45021554554114,2.5303885191679,0,87,500.00379377481295,89,497.4704644184094,0.9775280898876404,0.7134875708088647,0.2865124291911353,-0.912383098655662
93,1,428.63844650785904,0.5961622943868861,1,3,430.25576592131983,18,429.6579380480107,0.16666666666666666,5.5334239444926325e-05,0.9999446657605551,9.80206334712876,1,458.2411367971217,0.86292633053381,1,43,460.12727022042964,93,459.26134616386844,0.46236559139784944,1.0048195409062544e-06,0.9999989951804591,13.810701589043557,1,462.3272491241223,0.6291917991475202,1,15,463.9784889058792,42,463.3474367624731,0.35714285714285715,0.005551477271681704,0.9944485227283183,5.188124267574028,0,502.50409402151126,2.313828097714577,1,60,505.8414776561549,40,503.52443573379423,1.5,0.6786080980607266,0.32139190193927336,-0.747382528981078
94,0,432.7578178703552,0.6124048494384624,1,60,434.3920858136262,70,433.77782694093185,0.8571428571428571,0.0028371928686328207,0.9971628071313672,5.862098916833032,1,462.62748276349157,0.6117980350973085,1,40,464.2635186066036,93,463.6484838332981,0.43010752688172044,5.21793309227192e-07,0.9999994782066908,14.465993765017805,0,466.4801924107014,1.0959051093668677,1,35,468.59829997166526,62,467.50069333275314,0.5645161290322581,0.012084585832120687,0.9879154141678793,4.403666338559629,1,508.34159419924254,1.6294738730066456,1,69,510.9946856338647,61,509.3621543805348,1.1311475409836065,0.6277735271129377,0.3722264728870624,-0.5226770086965283
95,1,436.8938169727335,0.6290349598275498,1,26,438.54490386572434,84,437.9138600186561,0.30952380952380953,2.174446918967732e-06,0.999997825553081,13.038734041441339,1,466.76349766837666,2.083089317078702,1,74,469.86685126571683,60,467.7809562224429,1.2333333333333334,0.25292035175065075,0.7470796482493492,1.0830971796633255,1,471.10004890855635,1.0962902943138033,0,62,473.2181959756999,43,472.1199959545629,1.441860465116279,0.8955414881383618,0.10445851186163826,-2.1486385731118216,1,513.4943040045328,0.9621724743046798,1,43,515.4808509781142,93,514.515793765313,0.46236559139784944,0.012341981089822096,0.9876580189101779,4.382329955406425
96,0,441.04646119783865,0.6119738374254666,1,6,442.68087294348516,26,442.06718098395504,0.23076923076923078,3.872534656945703e-05,0.9999612746534305,10.158977496103178,1,472.3672222283785,0.712142844684422,1,62,474.103284066543,43,473.38813638465945,1.441860465116279,0.3461753677595596,0.6538246322404404,0.6358936791863767,0,475.7197331596981,1.228763078514021,0,43,477.9709985413938,7,476.7405343284481,6.142857142857143,0.9687361933400228,0.03126380665997714,-3.4335312367988897,0,517.9816557182348,1.7131644735345617,1,87,520.7176073342562,76,519.0015561469481,1.144736842105263,0.844429637274193,0.15557036272580707,-1.691563291289023
97,0,445.1825677569723,0.8296420111437328,1,87,447.03404402243905,85,446.2024409264559,1.0235294117647058,0.04911791170779689,0.9508820882922031,2.9631662989408585,0,476.6035839181859,0.9621791904210113,1,45,478.58948496636003,92,477.6242871116847,0.4891304347826087,1.8629496019162417e-06,0.9999981370503981,13.19334765587092,1,480.47801917785546,0.9462495239567943,1,37,482.44076567637967,54,481.49289995618165,0.6851851851851852,0.041845379356917345,0.9581546206430827,3.1310277831577547,0,523.2180790376151,2.1130085032782517,1,59,526.3549855960882,65,524.2387660336099,0.9076923076923077,0.29610262033554646,0.7038973796644535,0.8659264934471926
98,0,449.5406269308296,1.7453663246706128,1,62,452.3039045499754,17,450.5557743756799,3.6470588235294117,0.5384413351977319,0.46155866480226815,-0.1540693859960775,1,481.0900111881201,1.4291445498238318,1,32,483.5423150283168,16,482.1105263324571,2.0,0.08984586215258494,0.9101541378474151,2.3155184080852633,0,484.9425213293289,0.9959209908847697,1,24,486.9604816114297,90,485.96273583191214,0.26666666666666666,7.541190621773719e-05,0.9999245880937823,9.492469973269541,0,528.8554438673309,2.146255686879158,1,60,532.0251357826637,70,529.8759977276204,0.8571428571428571,0.2590857885364145,0.7409142114635855,1.0507256078651404
99,0,454.80570958560565,0.6457638354622759,1,80,456.4735221937299,60,455.825727742631,1.3333333333333333,0.18979406428506385,0.8102059357149362,1.4513488448135639,0,486.04318771895487,1.2797828900511377,1,6,488.34622747951653,26,487.0632315549883,0.23076923076923078,5.546837267067506e-05,0.9999445316273293,9.799642091523369,1,489.46244190621655,0.5064861183054745,1,43,490.99653491628123,93,490.4884262807318,0.46236559139784944,0.0010726749773665167,0.9989273250226335,6.836526520704854,1,534.52571336244,1.0295008161920123,1,6,536.5782916912576,8,535.5457603589166,0.75,0.028237610853356077,0.9717623891466439,3.5384565114297697
