,self_acceptUp,self_cue_times,self_decision_times,self_decisions,self_punishment_values,self_response_times,self_reward_values,self_trial_times,self_punishment_reward_ratio,self_prob_reject,self_prob_accept,self_SV,harm_other_acceptUp,harm_other_cue_times,harm_other_decision_times,harm_other_decisions,harm_other_punishment_values,harm_other_response_times,harm_other_reward_values,harm_other_trial_times,harm_other_punishment_reward_ratio,harm_other_prob_reject,harm_other_prob_accept,harm_other_SV,harm_self_acceptUp,harm_self_cue_times,harm_self_decision_times,harm_self_decisions,harm_self_punishment_values,harm_self_response_times,harm_self_reward_values,harm_self_trial_times,harm_self_punishment_reward_ratio,harm_self_prob_reject,harm_self_prob_accept,harm_self_SV,other_acceptUp,other_cue_times,other_decision_times,other_decisions,other_punishment_values,other_response_times,other_reward_values,other_trial_times,other_punishment_reward_ratio,other_prob_reject,other_prob_accept,other_SV
0,1,0.004275349579984322,1.4243772358022397,1,17,2.4527311550918967,82,1.0269929343339754,0.2073170731707317,1.1785994402657707e-10,0.9999999998821401,22.861524111315532,0,0.004827644792385399,2.306148926130845,1,77,3.337614345466136,72,1.0291274486371549,1.0694444444444444,0.006469474457830637,0.9935305255421694,5.0341699091002905,1,0.004388337009004317,2.85791593499016,0,98,3.887148074762081,73,1.0274468593706843,1.3424657534246576,0.987812216398749,0.012187783601250965,-4.39505850941015,0,0.0043484358611749485,3.306982109657838,0,43,4.337775135267293,7,1.0289390045654727,6.142857142857143,0.9998563510964902,0.00014364890350979613,-8.847994746414006
1,0,4.95362735085655,0.9823305040335981,1,35,6.939362885197625,62,5.95569114924001,0.5645161290322581,1.1086586134689824e-06,0.9999988913413865,13.712358621087207,0,5.8375501480622916,1.9495191120659001,1,7,8.790897005645093,54,6.839364662984735,0.12962962962962962,0.0053550800314758895,0.9946449199685241,5.224340160139173,0,6.3877222958544735,2.1666193252021912,0,50,9.574758370843483,7,7.405952383298427,7.142857142857143,0.9874628017638416,0.012537198236158363,-4.366438742868107,0,6.838331578604993,1.4991832114901626,0,14,9.341075079370057,7,7.8402405131055275,2.0,0.9888542856669623,0.011145714333037642,-4.4854919264805275
2,1,9.440078933170298,1.4988600516371662,1,15,11.959053117912845,42,10.458862105951994,0.35714285714285715,9.21001320274284e-05,0.9999078998679726,9.292542076807969,1,11.291295424613054,1.4159142401622375,1,40,13.727815648759133,93,12.309714351184084,0.43010752688172044,0.0001535440616073913,0.9998464559383926,8.781369429974003,1,12.074890913791023,4.017643421946559,1,28,17.09630795790872,82,13.076714910188457,0.34146341463414637,0.05259833944672887,0.9474016605532711,2.8910385934444065,0,11.841531177225988,1.1308674945757957,0,95,13.978080043307273,16,12.845060256673605,5.9375,0.9999995751706771,4.2482932299592535e-07,-14.67157791680339
3,1,14.460048473978532,0.8997382721136091,1,19,16.378776930811,37,15.478247351609753,0.5135135135135135,0.0008516532128984844,0.9991483467871015,7.067479125031901,0,16.228333771199686,1.7161937457858585,1,86,18.96399137977278,59,17.246207513671834,1.4576271186440677,0.03994258745816448,0.9600574125418355,3.179549977885872,1,19.596686228760518,2.283462946244981,1,15,22.900113975076238,56,20.614962538340478,0.26785714285714285,0.08790031964426293,0.9120996803557371,2.3395458415993247,0,16.478077475403552,1.2990133352868725,1,58,18.780542458189302,58,17.479847348455223,1.0,0.4446592099669583,0.5553407900330417,0.22227379292187258
4,1,18.879761225151015,2.0663267825730145,0,54,21.949120100500295,31,19.881550061123562,1.7419354838709677,0.3455141826978668,0.6544858173021332,0.6388162234577552,1,21.464753254811512,1.2824824049748713,1,56,23.767328459609416,46,22.482979391657864,1.2173913043478262,0.06727197715878541,0.9327280228412146,2.6293698871464932,1,25.40058271489397,1.5324793432519073,1,43,27.9536443384859,93,26.419135962205473,0.46236559139784944,0.0980036329968843,0.9019963670031157,2.2196059429615573,1,21.281315394939156,2.232798354962142,1,87,24.51841912411328,89,22.283329020589008,0.9775280898876404,0.06038954287129117,0.9396104571287088,2.744649423381919
5,1,24.450201974905212,0.8819877886708127,1,14,26.352017872559372,57,25.46870860501076,0.24561403508771928,4.569419386202256e-07,0.9999995430580614,14.598709046152628,1,26.267863964720163,1.6328038858191576,1,58,28.90420601639198,58,27.26973971410189,1.0,0.018047007541220683,0.9819529924587793,3.996563554177436,1,30.453893029349274,1.3490035575232469,1,17,32.80629213571956,82,31.45574586519797,0.2073170731707317,0.01910245055691817,0.9808975494430818,3.938651391061208,1,27.018424457433866,1.0989552613318665,1,40,29.13748397534073,93,28.036842593894107,0.43010752688172044,2.247051622572549e-05,0.9999775294837743,10.703284027264669
6,0,28.853278709560982,1.099145285639679,1,12,30.972005981224356,23,29.871521438966738,0.5217391304347826,0.04300788016894619,0.9569921198310538,3.102411798531248,0,31.404773521440802,1.3321672451129416,1,87,33.75719040555123,85,32.42333190453064,1.0235294117647058,0.001920411552440826,0.9980795884475592,6.253293507775653,1,35.307255096777226,1.9660212029266404,0,94,38.29341413646762,46,36.325726961527835,2.0434782608695654,0.9971921349202693,0.002807865079730691,-5.872519027974269,1,31.63818066532258,2.099655704383622,0,15,34.74173917681037,19,32.64004377275705,0.7894736842105263,0.8776979618087444,0.1223020381912556,-1.970808819340363
7,0,33.47306059641414,1.3492271620198153,0,62,35.84170184354298,17,34.49125038765487,3.6470588235294117,0.9944759197919546,0.005524080208045434,-5.19309912925627,1,36.257962157120346,1.1155553272983525,1,87,38.37704261325416,89,37.2597628449148,0.9775280898876404,0.0011915323753541873,0.9988084676246458,6.731322847050518,0,40.79401522169064,2.366581794398371,0,41,44.16428174955945,22,41.79586963779002,1.8636363636363635,0.9225029463199749,0.07749705368002517,-2.4768506511476707,1,37.24197720103257,0.9153629326174268,1,28,39.160860521762515,82,38.24381620975328,0.34146341463414637,4.2522434716141255e-05,0.9999574775652839,10.065436222298523
8,0,38.34353196338634,0.9155091051652562,1,22,40.27796093242068,31,39.36119790379598,0.7096774193548387,0.0097429043003473,0.9902570956996527,4.621425346046266,0,40.87766384659335,1.2656970554235158,1,87,43.163722343277186,76,41.89628030365566,1.144736842105263,0.005609170365930005,0.99439082963407,5.177727494407198,0,46.66488164961629,1.966306041867938,0,62,49.65109520770784,17,47.68324289729935,3.6470588235294117,0.9920056109403594,0.007994389059640616,-4.820988835397124,0,41.66172195215768,2.36643838728196,1,24,45.04806192975957,90,42.67998443460965,0.26666666666666666,3.941664283968471e-06,0.999996058335716,12.443903575072547
9,0,42.77909455980989,1.7659489067737013,1,55,45.54820988007123,60,43.78093435864139,0.9166666666666666,2.6659637117676382e-05,0.9999733403628823,10.532333194803865,0,45.66408441662497,2.3829985521006165,1,60,49.05109678796725,70,46.6659814993036,0.8571428571428571,0.004661446059942231,0.9953385539400578,5.3637572212083855,0,52.15184128031251,1.5990542240906507,0,43,54.75469796602556,7,53.15362419036683,6.142857142857143,0.975867705219999,0.024132294780001007,-3.6997760534755986,0,47.54877481724543,1.0988193603552645,0,53,49.6678592239914,15,48.567345447227126,3.533333333333333,0.999811375422372,0.00018862457762804213,-8.575563237724438
10,0,48.049322964288876,1.3827101576171117,0,78,50.43506718998833,34,49.05109244228515,2.2941176470588234,0.78781395966922,0.21218604033078003,-1.3117985316121588,1,51.551517330342904,1.1824178125098115,1,15,53.73734214846627,42,52.55331722802657,0.35714285714285715,0.028673905870374106,0.9713260941296259,3.5226747391402715,0,57.2549833975645,3.283685365560814,1,54,61.54232307689381,80,58.25697766522353,0.675,0.4311396692090974,0.5688603307909026,0.277202843557745,0,52.1686365064088,1.9662345358374296,1,45,55.15508552081883,92,53.18700367999554,0.4891304347826087,5.9526138263654715e-05,0.9999404738617363,9.729035515417214
11,0,52.93596812647593,2.2832519836956635,1,45,56.23885068867821,60,53.954321077879285,0.75,7.679883151867628e-06,0.9999923201168481,11.776898545608363,1,56.23827152934973,2.1498351608170196,0,54,59.4077052687353,31,57.25620453096053,1.7419354838709677,0.28830013419007106,0.7116998658099289,0.903654215659414,1,64.043020557001,2.3309267537260894,0,52,67.38010275535635,68,65.0469842034945,0.7647058823529411,0.5886245834132409,0.4113754165867592,-0.35828238090273673,1,57.655713075146195,1.7825995405437425,0,97,60.4584623042756,61,58.674107507948065,1.5901639344262295,0.9931610714591881,0.006838928540811937,-4.978261784514541
12,1,58.739908464369364,1.7494120505434694,0,58,61.50877568636497,6,59.75809944079083,9.666666666666666,0.9997955931938151,0.00020440680618496324,-8.495193974128123,0,61.908460032675066,1.1490335821581539,1,28,64.07752359996084,41,62.92692636657739,0.6829268292682927,0.04887617853379145,0.9511238214662086,2.9683541241632168,1,69.88021396500699,2.516544954967685,0,14,73.41702238612925,8,70.89880355792411,1.75,0.7045495966465877,0.2954504033534123,-0.8690577456351062,1,62.95913094493153,1.8660909311729483,0,94,65.8453877622087,46,63.97757950107916,2.0434782608695654,0.9996136425651759,0.00038635743482406135,-7.85836118792652
13,1,64.01012699233252,1.1994382233388023,1,75,66.22864942488377,70,65.02802127797622,1.0714285714285714,1.015355903910553e-05,0.9999898464409609,11.497676116080367,0,66.57824833926861,1.5157303393061738,1,58,69.11414693502593,58,67.59671546328173,1.0,0.018047007541220683,0.9819529924587793,3.996563554177436,1,75.91784628573805,2.8499902222392848,1,58,79.78849424494547,58,76.93620200255828,1.0,0.8345201944001794,0.16547980559982062,-1.618007775383028,1,68.34608366206521,1.7994844454660779,1,42,71.16572964795341,67,69.36446940351743,0.6268656716417911,0.009679603540984072,0.9903203964590159,4.628007579617892
14,1,68.72964004021196,1.2325115407147678,1,53,70.96519750084553,55,69.73137514789414,0.9636363636363636,0.00011690763633320778,0.9998830923636668,9.05400945351182,0,71.61484718054999,1.3323308003309648,1,35,73.95070310973097,62,72.61672134969558,0.5645161290322581,0.005252013346992768,0.9947479866530072,5.243877927578603,0,82.28856081272534,1.465706141811097,1,7,84.77446365538344,54,83.30715593647619,0.12962962962962962,0.049088975901025234,0.9509110240989748,2.9637860116191357,1,73.66639433799719,1.148774027111358,0,72,75.81873300003645,51,74.66823453188408,1.411764705882353,0.9688836770104468,0.03111632298955322,-3.4384120238534495
15,0,73.46612925209047,1.1327467995142797,0,62,75.61865675327135,17,74.48467459816311,3.6470588235294117,0.9944759197919546,0.005524080208045434,-5.19309912925627,0,76.45178063846834,0.9156797714967979,1,78,78.38708940822107,65,77.46978593623498,1.2,0.015304713450015828,0.9846952865499842,4.164171389972505,0,87.27529624632734,1.5657912774477154,0,78,89.84447280103632,34,88.27712419333693,2.2941176470588234,0.9943737996644284,0.005626200335571557,-5.174678873649732,1,78.31935739386245,3.4350419060938293,0,75,82.75773637979,70,79.32144489591883,1.0714285714285714,0.41822631810297306,0.5817736818970269,0.330058792512534
16,1,78.1192685051501,0.9655107841681456,1,4,80.08789039427938,22,79.12111067434307,0.18181818181818182,0.02291869942667668,0.9770813005733233,3.7526167168878906,1,80.88765533303376,1.2290124858991476,1,15,83.12354227449396,56,81.89285077956447,0.26785714285714285,0.005509386276910111,0.9944906137230899,5.195777426602215,0,92.34521808351565,2.8168457938882057,0,53,96.16551908045949,57,93.3470867217984,0.9298245614035088,0.7704139677372065,0.2295860322627935,-1.2106501633170494,0,85.25731899788661,1.7662455975369085,1,87,88.0436277656845,85,86.2757762453839,1.0235294117647058,0.13513747028001322,0.8648625297199868,1.8562780104279166
17,0,82.58902599697467,1.0989943723689066,1,58,84.69119310380484,58,83.59093690678128,1.0,7.727453074535262e-05,0.9999227254692546,9.468068864976553,0,85.62440014934691,3.1501828144537285,1,7,89.79465403525683,54,86.64281354506966,0.12962962962962962,0.0053550800314758895,0.9946449199685241,5.224340160139173,1,98.66641804164101,2.6167592755373335,1,50,102.3027454760595,62,99.68445810477715,0.8064516129032258,0.641248582133353,0.358751417866647,-0.5807874660769043,0,90.54414193749835,1.6826941576437093,0,28,93.23031697716215,41,91.54612119284866,0.6829268292682927,0.27695243344058373,0.7230475665594163,0.9596292395226823
18,1,87.19211260817247,1.345485934842145,1,74,89.54419171517657,60,88.19740168414137,1.2333333333333334,0.00028360087744327966,0.9997163991225567,8.167659028264627,1,92.29558460132102,1.1823107509990223,1,46,94.48118621000322,40,93.29740306687017,1.15,0.09562605273987135,0.9043739472601287,2.2467976322021834,0,104.80372581980191,2.0664954735839274,0,58,107.89016950089717,58,105.82210563535045,1.0,0.8345201944001794,0.16547980559982062,-1.618007775383028,1,95.73113732121419,1.799299556936603,0,41,98.5339410687593,7,96.73297870029637,5.857142857142857,0.9998059367779287,0.00019406322207130288,-8.547132482970316
19,1,92.04523487359984,1.4830840828071814,0,12,94.53140201204224,9,93.04698696891137,1.3333333333333333,0.8499043777247446,0.15009562227525544,-1.7338512735356453,0,96.98184299883724,2.199416494986508,0,95,100.1852823994559,16,97.98384437759523,5.9375,0.9055344409139032,0.09446555908609676,-2.260289997889879,1,110.39073503063992,1.3325457134924363,0,46,112.74388514788006,40,111.40913143874786,1.15,0.8473670415030186,0.1526329584969814,-1.714097868569095,1,101.03472822770709,1.7497012351523153,0,46,103.8047126820602,40,102.05292315472616,1.15,0.8776351693055758,0.12236483069442414,-1.9702239847090126
20,0,104.05475623751408,1.4321919364156201,1,15,106.50573292694753,42,105.0722795609181,0.35714285714285715,9.21001320274284e-05,0.9999078998679726,9.292542076807969,1,109.70857381023234,2.2658211045491043,0,41,112.99394016012957,7,110.72628162711044,5.857142857142857,0.8219636661105956,0.17803633388940449,-1.5297085398313157,1,122.26680204088916,4.167207175894873,0,19,127.45298162373365,37,123.28406580924639,0.5135135135135135,0.3428035836987622,0.6571964163012378,0.6508252923017104,0,113.32764498243341,3.0661766593984794,1,96,117.41315039378242,89,114.34535200918617,1.0786516853932584,0.19928498079753465,0.8007150192024654,1.3907692378853251
21,1,109.00676225824282,0.9821120353299193,1,15,111.00862378542661,56,110.02518316011992,0.26785714285714285,7.310339902311114e-07,0.9999992689660098,14.128805148979211,1,115.49439546787471,1.2155112780019408,1,54,117.73000507653342,78,116.51286575237464,0.6923076923076923,0.001470767651736704,0.9985292323482633,6.5204989521388255,0,129.95373125189508,1.5990190636657644,0,80,132.573121633337,60,130.97237101753126,1.3333333333333333,0.9727632435236826,0.027236756476317396,-3.5755733241878542,0,119.91414219429134,2.0996695315116085,0,12,123.03357504479936,3,120.93239796069975,4.0,0.9937753940235872,0.006224605976412797,-5.0730010759908435
22,0,113.50954684533644,1.3657798206695588,0,43,115.89522272547765,7,114.52804557423224,6.142857142857143,0.9981355045922983,0.0018644954077017054,-6.282898585624261,1,120.23075747011171,1.0990247920562979,1,94,122.33387509357999,46,121.23264309602382,2.0434782608695654,0.2045041728040995,0.7954958271959005,1.3583772220682584,0,135.07381121221988,2.4660541905032005,0,40,138.5438665800175,15,136.07615826932306,2.6666666666666665,0.946008416191043,0.05399158380895695,-2.8634232865922966,0,125.53453721573169,2.282923292994383,1,53,128.83807597417035,57,126.55286764865741,0.9298245614035088,0.3203123810545133,0.6796876189454867,0.7523365982925931
23,0,118.39647842670092,1.2493482482095715,0,53,120.66529883397743,15,119.4146512303123,3.533333333333333,0.9915397896296018,0.00846021037039823,-4.763885038109235,0,124.83403410561732,1.6496030625130516,1,78,127.5032159936527,34,125.85211051435908,2.2941176470588234,0.3871177282871868,0.6128822717128132,0.4594440105924526,1,141.04447596153477,2.366264165408211,0,33,144.4142980458273,25,142.04635013066581,1.32,0.8188329209342784,0.18116707906572158,-1.508460365055933,0,131.33829227004026,2.383042008805205,1,55,134.7253038512572,60,132.3402478217322,0.9166666666666666,0.24642833638889372,0.7535716636111063,1.1177528945644069
24,1,123.16603937571927,1.5128076784021687,0,33,125.70186132965318,25,124.18776496243663,1.32,0.23510267303999544,0.7648973269600046,1.1797192864135178,0,130.00380048633087,1.082265911565628,0,62,132.09008298255503,17,131.00574063064414,3.6470588235294117,0.7382757391361354,0.26172426086386463,-1.0370258749769103,1,146.91518041446398,3.250736887435778,1,25,151.18568180606235,37,147.93333227983385,0.6756756756756757,0.48016038945171713,0.5198396105482829,0.07940012996527429,0,137.22545575219556,1.8992772360070376,0,22,140.12837505506468,31,138.2274314519891,0.7096774193548387,0.5887287315371812,0.41127126846281875,-0.3587125025312625
25,1,128.20287051284686,3.200470517578651,1,97,132.4230087446631,61,129.22126178516191,1.5901639344262295,0.0035030708667083132,0.9964969291332917,5.650606083694192,1,134.5902001181239,1.5324915901437635,1,14,137.12636103435943,57,135.59227971895598,0.24561403508771928,0.004731680533007543,0.9952683194669925,5.348731936817741,1,153.68625247159798,2.2830429964669747,0,6,156.97256499246578,8,154.68805750507454,0.75,0.526763777080843,0.473236222919157,-0.10715752918652523,1,142.62922779412474,1.9491291869053384,1,26,145.58175845579535,84,143.63110275338113,0.30952380952380953,2.0186340831007676e-05,0.999979813659169,10.810484192221262
26,1,134.92400805134093,0.8987344222550746,1,54,136.8261076027411,78,135.92608646697772,0.6923076923076923,4.69190388763252e-08,0.9999999530809611,16.874842250758697,1,139.6271240945789,0.7822044795902912,1,45,141.42939095429028,40,140.6454130461061,1.125,0.09277234667510847,0.9072276533248915,2.280244807598979,1,159.4735433609021,1.8161382397229318,1,53,162.30955356136838,55,160.49189552218013,0.9636363636363636,0.7938532308639487,0.20614676913605134,-1.3483102097458204,1,148.08268309594132,1.3158563637261977,1,88,150.4192406533548,96,149.10102222020214,0.9166666666666666,0.01553705773189007,0.9844629422681099,4.148868264329577
27,1,139.32698207015346,0.7319997392623918,1,42,141.0786108076718,39,140.34531329320453,1.0769230769230769,0.007421878399047954,0.992578121600952,4.895873542752377,1,143.9299896691664,0.8990303229074925,1,88,145.83260358992266,96,144.9319503566512,0.9166666666666666,0.0005340819640665684,0.9994659180359334,7.534427015384576,0,164.81052086810814,1.815982980770059,0,51,167.630443001588,7,165.81224056841165,7.285714285714286,0.9885887224713368,0.011411277528663255,-4.46167626992418,1,152.9193803074013,1.3321700105298078,0,74,155.25508216281014,60,153.9213184764085,1.2333333333333334,0.8507427682857747,0.1492572317142253,-1.7404386081506287
28,1,143.5798127806047,0.9655953272158513,1,3,145.54850815108512,18,144.58163164120924,0.16666666666666666,0.07618946503989665,0.9238105349601033,2.4952838028068114,1,148.33292457694188,1.3491303720802534,0,12,150.70277550070023,9,149.3514426638285,1.3333333333333333,0.5795011210044212,0.42049887899557886,-0.32072578368681853,0,170.13114048169518,1.8329239843442338,1,14,172.9835954891896,57,171.14909876721504,0.24561403508771928,0.07560525572642984,0.9243947442735702,2.5036133918697834,0,157.7559388524678,1.6827332686807495,0,86,160.45874951359292,59,158.77439649502048,1.4576271186440677,0.9774167588537319,0.02258324114626812,-3.767705042051259
29,1,148.04929175447614,1.0654035251354799,1,43,150.11804618657334,97,149.0513381701894,0.44329896907216493,1.68383085252799e-11,0.9999999999831617,24.807364556009343,1,153.20307791985397,3.2173269781196723,1,32,157.4399849086767,16,154.2210934892064,2.0,0.5382048730155682,0.4617951269844318,-0.15311794789175187,1,175.48421948796022,2.2996794080390828,0,54,178.80440927523887,31,176.5025704640575,1.7419354838709677,0.9567054291097297,0.04329457089027038,-3.0954682939471456,1,162.9594363270444,2.0996829635842005,1,14,166.07901179454348,57,163.97776043899648,0.24561403508771928,0.001332785175326312,0.9986672148246737,6.619150735444577
30,1,152.61917467816966,0.8322756893321639,1,55,154.45447811461054,95,153.62095245243108,0.5789473684210527,1.4960965799559744e-10,0.9999999998503903,22.62299149352829,1,159.9405543890316,1.9833438353816746,1,15,162.92712389703956,19,160.94247675560473,0.7894736842105263,0.31561315752618135,0.6843868424738186,0.7740060383099086,0,181.3047049783636,1.9494626183441142,0,9,184.2579538608261,7,182.30657361664635,1.2857142857142858,0.613417417503231,0.38658258249676897,-0.4617001335691287,0,168.57993327421718,1.1321933191211428,1,54,170.71560668523307,80,169.5817323817755,0.675,0.0033015997570217115,0.9966984002429783,5.7100410910562935
31,1,156.95574961826787,1.1467410434706835,1,32,159.1076153923641,16,157.95956827739428,2.0,0.8587383507772146,0.14126164922278542,-1.804850439120024,0,165.4276274022268,1.2492723964969628,1,71,167.67997574326,69,166.42947391710186,1.0289855072463767,0.0075672392584401615,0.9924327607415598,4.876330957024918,1,186.75863474837388,1.6992614335613325,0,32,189.47782621663646,16,187.77698374916508,2.0,0.8841871320514078,0.11581286794859229,-2.03269304692933,0,173.2162875727663,1.4490547179302666,0,38,175.68547696695896,43,174.23478709178744,0.8837209302325582,0.5251029690306368,0.4748970309693632,-0.10049637121875776
32,1,161.6086561804259,0.8662770048977109,1,37,163.49440731968207,54,162.6269249838515,0.6851851851851852,2.2547436026143508e-05,0.9999774525639739,10.69986665251302,1,170.18101021036273,2.049663901896565,1,74,173.25009214796592,60,171.19917471767985,1.2333333333333334,0.024117054100768365,0.9758829458992316,3.700423417466129,0,191.97850157333596,1.6494410875311587,0,78,194.63136902445694,65,192.98024260692182,1.2,0.9543901197843316,0.04560988021566839,-3.040948154003782,0,178.1864047676063,1.6489405453030486,0,41,180.85569371715246,22,179.20510813806322,1.8636363636363635,0.994598914937239,0.005401085062761045,-5.215739684392806
33,0,165.99483694846276,1.0824061582097784,1,28,168.0969645492005,41,167.0132471836987,0.6829268292682927,0.0006556944414747301,0.9993443055585253,7.32915975846602,0,175.75125856541854,1.182354207689059,1,60,177.93675903850817,40,176.7531268086459,1.5,0.1444838571390904,0.8555161428609096,1.7785371766470435,1,197.13224072643789,2.449724741280079,1,4,200.60220957588172,22,198.15051940637932,0.18181818181818182,0.25981355107953896,0.740186448920461,1.0469378499270174,1,183.35629164190323,1.7493207914667437,1,15,186.10846161292284,56,184.3582234899368,0.26785714285714285,0.0019332324084269104,0.9980667675915731,6.246626750484168
34,0,170.59793264605105,1.9828306512063136,1,87,173.60047920892248,85,171.6163804120879,1.0235294117647058,2.540058895439401e-07,0.9999997459941105,15.185908129009904,0,180.4375813578663,2.0661067336186534,1,96,183.50707889960904,89,181.43958392181958,1.0786516853932584,0.0016093756976627294,0.9983906243023373,6.430298268479209,1,203.10258666155278,1.4657207590789767,1,3,205.58875063950836,18,204.12131571097416,0.16666666666666666,0.2959090730084989,0.7040909269915011,0.8668552841255474,0,188.60999464693305,1.1326093183015473,1,7,190.7627327155933,54,189.62816547523835,0.12962962962962962,0.0009057056323575896,0.9990942943676424,7.0058900977817515
35,1,176.10147021930607,1.2823848249245202,1,45,178.3871214081446,40,177.10340127722884,1.125,0.007630430668718713,0.9923695693312813,4.867951299800219,0,186.0078419598285,1.0154393769189483,1,45,188.0265706141945,42,187.00977104243066,1.0714285714285714,0.07451899991005773,0.9254810000899423,2.5192594772364,0,208.0893596259557,1.9829408732039155,1,35,211.09256554555031,62,209.10790220661147,0.5645161290322581,0.29989971791127135,0.7001002820887287,0.8477754397641855,0,193.26311967779475,1.8494237048435025,0,12,196.1158239687502,23,194.2648654521181,0.5217391304347826,0.6527488179909418,0.3472511820090582,-0.6311440112208277
36,1,180.8909070796799,0.9157307343557477,1,94,182.82337773159088,46,181.90641993793542,2.0434782608695654,0.30105790979539937,0.6989420902046006,0.8422652545794902,1,190.52766513054667,1.1322948497836478,1,19,192.66299641877413,37,191.5294456702395,0.5135135135135135,0.05779343405276305,0.942206565947237,2.7913493634595303,1,213.5928723103716,2.0328319351392565,0,88,216.62936606544827,96,214.59492386187776,0.9166666666666666,0.8652494674272672,0.1347505325727328,-1.859592704918557,0,198.6165230290935,1.1157236232684227,0,62,200.75281115494727,17,199.63502610365686,3.6470588235294117,0.9999240422791706,7.59577208293568e-05,-9.485257716744034
37,0,185.32452953179018,1.0986917556729168,1,54,187.42629209620645,80,186.32629229374288,0.675,2.3512421010174478e-08,0.999999976487579,17.565736978294698,0,195.16425370024808,1.8326146516192239,1,14,198.01655937470787,57,196.18271410823218,0.24561403508771928,0.004731680533007543,0.9952683194669925,5.348731936817741,0,219.13024961926567,2.4503090364305535,0,59,222.60019120949437,65,220.14835447238875,0.9076923076923077,0.7740696586130794,0.2259303413869206,-1.2314351399384023,1,203.25301520392532,1.7984805955929914,0,69,206.05586122299428,61,204.25580275397806,1.1311475409836065,0.682696159403712,0.3173038405962881,-0.7661900963029096
38,0,189.92777495748305,1.516078783053672,1,7,192.46324372691743,54,190.9459074648621,0.12962962962962962,5.389930050059277e-07,0.999999461006995,14.433562704854026,1,200.51791779177438,1.5661349804722704,1,3,203.10352414118825,18,201.53602778069035,0.16666666666666666,0.25810048794430207,0.7418995120556979,1.055864808252745,1,225.10089935624273,1.4493028161959955,1,10,227.57017131817702,44,226.11911482643336,0.22727272727272727,0.1202808590533978,0.8797191409466022,1.9897731983070615,0,208.55659070303955,1.8657910799083766,1,60,211.44265552068828,70,209.57526483898982,0.8571428571428571,0.07001064953086789,0.9299893504691321,2.5865257683401937
39,0,194.96414940414252,1.966062684325152,1,7,197.93343697098317,54,195.96611325211416,0.12962962962962962,5.389930050059277e-07,0.999999461006995,14.433562704854026,0,205.60462260815257,2.383075588979409,1,80,209.00740186193434,60,206.62311027533724,1.3333333333333333,0.02931961905264313,0.9706803809473569,3.4997403650853576,0,230.07059186055267,1.6159351784008322,0,95,232.68999014323344,16,231.07247788152017,5.9375,0.999675421091879,0.00032457890812100516,-8.032657251461908,0,213.94342332164524,1.1821934178879019,0,9,216.14599516840826,7,214.96211049459816,1.2857142857142858,0.9766455504570496,0.023354449542950385,-3.733336267871308
40,1,207.45719968948106,1.8324696642521303,1,98,210.30841381053324,73,208.47460844521993,1.3424657534246576,6.305009756180091e-05,0.9999369499024382,9.6715178960973,0,218.5144116258598,2.866636115286383,1,38,222.39966656856996,43,219.53177060392045,0.8837209302325582,0.05350973730627284,0.9464902626937272,2.872897039832682,0,242.21322348005197,1.3486954099789727,0,87,244.58133258008456,85,243.23091154388385,1.0235294117647058,0.9256343698689323,0.07436563013106767,-2.521485433220725,1,225.6691684559628,2.7666600164666306,0,32,229.45543811272364,16,226.68679607547529,2.0,0.9944831527903646,0.005516847209635455,-5.194416618327214
41,1,212.80939375922026,0.9657221417874098,1,69,214.7947200104245,61,213.8277060193359,1.1311475409836065,0.00010777155061003629,0.99989222844939,9.135389065958913,0,224.90085234399885,1.248703508739709,0,28,227.16954949226056,18,225.91954544288456,1.5555555555555556,0.44529846642737836,0.5547015335726216,0.21968542333285374,1,247.08200872689486,2.0161560174747137,0,55,250.10172503362992,95,248.08385879731213,0.5789473684210527,0.2289206826345126,0.7710793173654874,1.2144156647174547,1,231.95566784066614,1.4827707994700177,1,66,234.45819168753223,59,232.97375136049232,1.11864406779661,0.6811544814074134,0.3188455185925866,-0.7590824076143781
42,0,217.29581373666588,1.0823611212545075,0,51,219.39776948587678,7,218.31413547824195,7.285714285714286,0.9993102910170721,0.0006897089829278966,-7.278550866271392,1,229.670552749536,2.266457942794659,1,14,232.94025177235017,8,230.67236489409697,1.75,0.624132845176059,0.37586715482394095,-0.5071274692991212,1,252.60240710635844,1.9329818607802736,1,37,255.55548216201714,54,253.62078297129483,0.6851851851851852,0.4733602006423643,0.5266397993576357,0.10666019993695611,0,236.95871771118254,1.4157581910985755,1,60,239.37864774589252,61,237.96065588018973,0.9836065573770492,0.3571650304430375,0.6428349695569625,0.5876900891936865
43,1,221.89890864412882,1.0989706686959835,1,43,224.0174324593827,93,222.91721734870225,0.46236559139784944,6.705058730460678e-11,0.9999999999329494,23.425573746968492,1,235.44127596785256,1.0155337964679347,1,4,237.4763818738138,22,236.4595744008402,0.18181818181818182,0.18235886896143505,0.817641131038565,1.5004469721307943,1,258.05606902504223,1.365850536589278,0,97,260.42532261664746,61,259.05784640424827,1.5901639344262295,0.9940935201614066,0.005906479838593402,-5.125781260926704,0,241.87860093115887,1.0490401006536558,0,60,243.93171134477598,40,242.88051223603543,1.5,0.9833123817064938,0.016687618293506155,-4.0762598288148295
44,0,226.51860243239207,1.3156141913786996,1,56,228.85405697963142,59,227.537139482185,0.9491525423728814,4.2650483449202525e-05,0.9999573495165508,10.062429297429299,1,239.9774242421263,0.8153200685046613,1,24,241.79580208237167,69,240.9792533743166,0.34782608695652173,0.0015806326765948064,0.9984193673234052,6.448348200674349,0,262.92604577570455,1.7160941904294305,0,37,265.6621723216376,52,263.94450618368865,0.7115384615384616,0.5077493410459772,0.49225065895402276,-0.03099984649181502,0,246.43187509753625,2.1829254658223363,0,45,249.63490284464206,42,247.45036948074994,1.0714285714285714,0.798284562013859,0.201715437986141,-1.3756071465101662
45,1,231.35500729874184,1.4659803141112207,1,53,233.82422711263644,40,232.3568834431935,1.325,0.020386223802093317,0.9796137761979067,3.8722990191530804,0,244.29706252433243,1.3326737132447306,1,22,246.63296191020345,31,245.29894498974318,0.7096774193548387,0.12196376949102394,0.8780362305089761,1.973963828356876,1,268.16259799980617,3.250535011291504,0,42,272.41714011429576,39,269.1645946378412,1.0769230769230769,0.8024975453793419,0.19750245462065807,-1.40197778355919,1,252.1358539538778,2.0495603959279833,0,33,255.2054581620614,25,253.1541322387493,1.32,0.9659740029721449,0.034025997027855165,-3.3460120709025514
46,0,236.325121333095,1.3324343062995467,0,50,238.6606371147791,7,237.32700695899257,7.142857142857143,0.9992189533532949,0.0007810466467050846,-7.154094331190501,1,249.13367084707716,1.365683820884442,1,66,251.51898722175974,59,250.15200918122719,1.11864406779661,0.020867102906731883,0.9791328970932681,3.84849348582179,0,274.917354829915,2.082993218777119,1,45,278.02047245338326,92,275.93580615149403,0.4891304347826087,0.1234344906914191,0.8765655093085809,1.9603008656350243,0,257.70607149419084,1.065442636157968,0,56,259.791525152541,59,258.72441733449523,0.9491525423728814,0.32186178504976426,0.6781382149502357,0.7452289096040631
47,0,241.16163286590017,0.7986362496012589,0,62,242.96338101060246,16,242.16348728199955,3.875,0.9960831637053825,0.003916836294617431,-5.538546491546763,0,254.02020341689058,1.7828733177739196,1,37,256.8227582760446,52,255.03862273853156,0.7115384615384616,0.018308525930628927,0.9816914740693711,3.981910228597883,1,280.52128173573874,2.2995865687262267,1,16,283.84107567195315,10,281.53962046494416,1.6,0.7154235383757401,0.2845764616242599,-0.9218727533184807,1,262.2923640644731,1.5162368074379629,0,12,264.8121761734801,9,263.29427141872293,1.3333333333333333,0.9768071218056187,0.023192878194381355,-3.7404439565598384
48,0,245.46466792163847,0.7822159363713581,0,40,247.26656460925005,15,246.48303232980834,2.6666666666666665,0.9587488468374386,0.041251153162561414,-3.1459500820576474,0,259.3236892371642,1.899409976482275,0,55,262.2262379728636,60,260.32551323356165,0.9166666666666666,0.012920699416205106,0.9870793005837949,4.335919750005247,0,286.3415847079741,3.1168317692208802,0,96,290.4618606185395,89,287.34346282773186,1.0786516853932584,0.9570287885953487,0.04297121140465127,-3.103303083867838,0,267.3122960744804,1.3822562325804029,1,14,269.6983330403309,57,268.3143764654378,0.24561403508771928,0.001332785175326312,0.9986672148246737,6.619150735444577
49,0,249.7672111264983,1.4991231622261694,1,71,252.2697385289066,69,250.76931206061272,1.0289855072463767,8.71849773786959e-06,0.9999912815022621,11.65005489411641,1,264.7274395507411,1.2492135324282572,1,46,266.99611694594205,36,265.7456601567246,1.2777777777777777,0.1456955706163111,0.8543044293836889,1.768768292927336,0,292.9627256044914,2.0498740743205417,0,77,296.0325210221781,72,293.98097149436944,1.0694444444444444,0.921572040718317,0.07842795928168299,-2.463900464447011,1,272.1990720018366,2.1492129398247926,1,53,275.3518653790379,55,273.201106170658,0.9636363636363636,0.42356614924864777,0.5764338507513522,0.3081508918155903
50,0,254.770838971177,1.0654774015274597,0,41,256.8394488109625,22,255.77264795525116,1.8636363636363635,0.701044174777502,0.2989558252224979,-0.8522750811050908,1,269.49718657346966,0.8818744061718462,1,72,271.399049878426,51,270.51590574636066,1.411764705882353,0.063461824145844,0.936538175854156,2.691751754891318,1,298.5329391941923,2.316434337903047,0,75,301.8529215744784,70,299.53480743741966,1.0714285714285714,0.9176687283946937,0.08233127160530625,-2.411085456763636,1,277.853050364356,1.84946637142275,0,58,280.72260281955823,6,278.87123580991465,9.666666666666666,0.9999879514546614,1.2048545338660265e-05,-11.326554575480166
51,1,259.34048011756386,1.2488469158561202,1,42,261.5925167555106,67,260.34239853352483,0.6268656716417911,4.710035725885575e-07,0.9999995289964274,14.568399686841367,1,273.9001451849035,1.9161222397669917,0,53,276.8195578872983,40,274.90209204526036,1.325,0.11787932814657076,0.8821206718534292,2.012667404424612,1,304.3536044373177,1.7326914909936022,1,40,307.10637095037964,93,305.37214899327955,0.43010752688172044,0.07548617176949624,0.9245138282305038,2.5053185241297724,1,283.22313239875075,1.299130668383441,1,37,285.52598454126564,54,284.2249706173461,0.6851851851851852,0.07635345799778392,0.9236465420022161,2.492956146126594
52,0,264.09368870382605,1.8993910135468468,0,9,267.01285449312127,7,265.1121542475885,1.2857142857142858,0.8860866216988391,0.11391337830116088,-2.051376392873957,1,279.32047107067774,1.715935770989745,0,16,282.0561022101756,10,280.3390456512716,1.6,0.5829771925836349,0.41702280741636505,-0.3350071504552895,1,309.6104169670725,2.683406847587321,0,72,313.3112045210728,51,310.6256268135767,1.411764705882353,0.9687244425066105,0.03127555749338951,-3.4331433166687435,1,288.0264710588235,1.9995354083221173,0,14,291.0458341810736,8,289.04466914634395,1.75,0.9861209577704894,0.013879042229510672,-4.263399073242027
53,1,269.5138901453902,1.4158774995012209,0,16,271.94967042039207,10,270.53242363965546,1.6,0.868325085568855,0.131674914431145,-1.8862300515687183,0,284.557246504206,1.1660014498775126,0,53,286.7259201463312,15,285.5586730692885,3.533333333333333,0.7261181564484974,0.2738818435515026,-0.9750159660431725,1,315.81144689096254,2.8162160667270655,0,82,319.63152823402197,40,316.813663182882,2.05,0.994191738842265,0.0058082611577350745,-5.142648842587709,1,293.5468524506723,1.582848428937723,1,24,296.1499078520428,69,294.56508569860307,0.34782608695652173,0.0004178568696077134,0.9995821431303923,7.779953657087986
54,1,274.4506803937111,1.582631935540121,1,66,277.05306656184257,59,275.46909615980985,1.11864406779661,0.0001480423761335281,0.9998519576238665,8.817863946621374,0,289.22691115672933,1.5995654329599347,1,45,291.8296627562231,92,290.22885841214156,0.4891304347826087,0.0002045228685755296,0.9997954771314245,8.49462621817213,0,322.13229761521507,2.9499880494113313,1,38,326.08590639820613,43,323.13427924092684,0.8837209302325582,0.6782426844251277,0.3217573155748723,-0.7457075824773567,1,298.65014390095894,1.382532775241998,0,58,301.0527311550977,58,299.668661987831,1.0,0.4446592099669583,0.5553407900330417,0.22227379292187258
55,0,279.55397776991595,1.3991814337205142,1,45,281.9562383086595,42,280.55580374161946,1.0714285714285714,0.0038384300385945203,0.9961615699614055,5.558846024381215,1,294.3308477415412,1.8494181739952182,1,43,297.1997293832537,93,295.34905491545214,0.46236559139784944,0.00016974764485178095,0.9998302523551482,8.681027903784415,1,328.58663153258385,2.1665541401453083,1,56,331.7731184728473,46,329.60490389155166,1.2173913043478262,0.9049514085136185,0.09504859148638142,-2.253492999843508,1,303.55338320319424,1.7497257289360277,1,17,306.3228236586292,82,304.57160894497065,0.2073170731707317,8.128072077617787e-06,0.9999918719279224,11.720178671245208
56,0,284.4574390964117,1.0991543720447225,1,60,286.57610434349044,40,285.4756786653161,1.5,0.047376055841644615,0.9526239441583554,3.0011032735868404,1,299.7006702209037,0.8653430808044504,1,52,301.56920973984234,68,300.70252424193313,0.7647058823529411,0.004530780627112763,0.9954692193728872,5.392319954745322,1,334.27357141023094,2.0162464864260983,0,87,337.29371991363587,89,335.27537288815074,0.9775280898876404,0.9043192515972882,0.0956807484027118,-2.246165340363183,0,308.82361871878675,1.1655743890005397,0,40,311.0091014141217,15,309.84196613932727,2.6666666666666665,0.9986682895671969,0.0013317104328031076,-6.619958525340467
57,0,289.07708784771967,1.0824594914301997,1,77,291.17902147353743,72,290.0953131944407,1.0694444444444444,6.5263397716064375e-06,0.9999934736602284,11.93965777048973,1,304.07040697203774,0.7956610456021735,1,26,305.8886445656535,84,305.09179912731634,0.30952380952380953,0.0002817907728509539,0.999718209227149,8.174063872161552,0,339.7940887030272,1.4490278537850827,0,24,342.26326268985576,90,340.8126166664297,0.26666666666666666,0.02140216068529721,0.9785978393147028,3.8226288873837824,1,313.5101710416493,2.1828602807654534,1,3,316.71330703544663,18,314.52864251132996,0.16666666666666666,0.5957356642515377,0.4042643357484623,-0.3877280919167355
58,1,293.68018354530795,1.299228248433792,1,58,295.9990597549331,58,294.6984764474473,1.0,7.727453074535262e-05,0.9999227254692546,9.468068864976553,0,308.38961977360304,0.7819433443073649,1,56,310.1749515556585,59,309.39166263375955,0.9491525423728814,0.015024046069146202,0.9849759539308538,4.182965239789738,0,344.76408737957536,1.6658151786396047,0,62,347.45012651826255,16,345.78253475054225,3.875,0.9925333847025455,0.007466615297454523,-4.889818858611509,0,319.2139266885497,3.7340007229649927,1,59,323.96798426077294,65,320.2323041337222,0.9076923076923077,0.16431140190576476,0.8356885980942352,1.6264926338695347
59,1,298.49991762978607,0.8656026358512463,1,24,300.36857329664053,69,299.50167209545907,0.34782608695652173,2.5122246505304702e-08,0.9999999748777535,17.499512043279218,0,312.67598602274666,1.0155006113491254,0,40,314.69462934395415,15,313.6778364882339,2.6666666666666665,0.631859566378864,0.3681404336211361,-0.540202685884829,0,349.9507015294803,1.6659858449565945,0,53,352.6205957124039,15,350.95260335288185,3.533333333333333,0.9837217166377059,0.01627828336229404,-4.101511138321241,0,326.46848302522267,1.098855310905492,0,35,328.57095906972245,62,327.4704871694121,0.5645161290322581,0.010246079165231903,0.9897539208347681,4.570561235478295
60,0,309.8754183201527,1.3322936646000016,0,28,312.2264761946135,18,310.8929321621108,1.5555555555555556,0.649337769661601,0.35066223033839905,-0.6161295742154732,0,324.2014561946562,1.6492127422970952,0,51,326.8694825294224,7,325.2190028266632,7.285714285714286,0.8657834516936505,0.1342165483063495,-1.864180293799272,1,362.14359122254245,1.9328060586558422,0,41,365.09584336623084,7,363.16097706473374,5.857142857142857,0.9709512553989276,0.02904874460107243,-3.5093009993634534,1,338.0944207517605,2.3327543056802824,0,98,341.4468692407536,73,339.1118990382238,1.3424657534246576,0.9215487797541086,0.07845122024589134,-2.463578677374378
61,1,314.72755056286405,1.199257680476876,1,82,316.9463835133065,40,315.74582331688725,2.05,0.43461176417258507,0.5653882358274149,0.26305950180723175,1,329.37065368759795,1.0991200017451774,1,98,331.48933947784826,73,330.3889031330327,1.3424657534246576,0.011529081413477527,0.9884709185865225,4.451286560586274,0,367.5957685021858,2.600039111028309,0,60,371.199365532113,61,368.59761738742236,0.9836065573770492,0.8322967165619155,0.16770328343808447,-1.6019927598520165,0,343.9469132900558,1.2990639030758757,0,71,346.2495528897707,69,344.94884711339546,1.0289855072463767,0.329667239461537,0.670332760538463,0.7096904661614092
62,0,319.4473772891215,1.0657962157129077,1,45,321.5327926265745,92,320.46572391955124,0.4891304347826087,1.2148704264802745e-10,0.999999999878513,22.83121350358563,1,333.99032179689675,0.7987346197769511,1,28,335.808944969991,82,335.00888531579403,0.34146341463414637,0.0003825934891718008,0.9996174065108282,7.868154851730281,1,373.6999666173506,3.5838826985127525,1,15,378.3040685351734,42,374.7185538398917,0.35714285714285715,0.20166417689092708,0.7983358231090729,1.3759255165979278,0,348.7501338269067,1.5494562973763095,0,78,351.3198978372384,65,349.76860292622587,1.2,0.7741157777260819,0.2258842222739181,-1.2316988688455028
63,0,324.03361731630866,1.0823271460249089,1,80,326.119061098143,60,325.0355045224569,1.3333333333333333,0.0005982401853074082,0.9994017598146926,7.4209198177788585,0,338.30976452393224,0.8487947678222554,1,15,340.1616044215334,42,339.3115166192292,0.35714285714285715,0.028673905870374106,0.9713260941296259,3.5226747391402715,1,380.8047055709467,3.1168566580599872,0,45,384.9249846419989,40,381.80655722161464,1.125,0.8346378970007091,0.16536210299929088,-1.6188603415130225,0,353.8203053426114,1.4326818119880045,1,7,356.2728543746198,54,354.83850817085477,0.12962962962962962,0.0009057056323575896,0.9990942943676424,7.0058900977817515
64,1,328.62003196042497,1.0158324625663226,1,15,330.65559850745194,19,329.63853068932076,0.7894736842105263,0.20631987745485658,0.7936801225451434,1.3472527441266067,1,342.6627803204465,0.7487392617476871,1,50,344.43126709874196,62,343.6811771236098,0.8064516129032258,0.00864432536152282,0.9913556746384772,4.742170296626656,0,387.42569713442936,3.5174101384618552,0,60,391.94717798088095,70,388.4276092294167,0.8571428571428571,0.7276084587321097,0.27239154126789034,-0.9825225509225466,1,358.77335471930564,1.9162372025020886,0,6,361.69288633504766,8,359.7752284933813,0.75,0.9552101586461726,0.04478984135382734,-3.059950019467275
65,0,333.15660532028414,1.3324880345899146,1,60,335.5087436864269,70,334.1749969876546,0.8571428571428571,1.5698574920008923e-06,0.999998430142508,13.36452414229131,1,346.9322818127839,0.9154166609077947,1,25,348.8508131342096,37,347.9340817104676,0.6756756756756757,0.06974154177852199,0.930258458221478,2.590666311078758,1,394.4472567955381,1.5656348333141068,1,24,397.0332483293896,69,395.46596648698323,0.34782608695652173,0.08492803979898333,0.9150719602010167,2.377198399881682,1,364.1938378393388,1.1656340431945864,1,4,366.3628982461378,22,365.19559704573476,0.18181818181818182,0.4133309666723187,0.5866690333276813,0.35021218931542264
66,0,338.0097007215809,0.7652595254185144,1,14,339.77830246261146,57,339.01170723613177,0.24561403508771928,4.569419386202256e-07,0.9999995430580614,14.598709046152628,1,351.35191831720294,1.4659941412392072,1,53,353.83754975299235,55,352.3703423795814,0.9636363636363636,0.021768605454921985,0.978231394545078,3.8052774267052802,1,399.53379568632226,1.5152274267165922,0,46,402.05327633921115,36,400.5362656073703,1.2777777777777777,0.879681547063063,0.120318452936937,-1.9894179614266376,0,368.86374426915427,1.7162632765248418,0,51,371.6005009372893,7,369.88202887501393,7.285714285714286,0.9999568784170935,4.3121582906563054e-05,-10.051443800188757
67,0,342.27918838679034,2.7666627819126006,0,14,346.04894686627085,7,343.280985914098,2.0,0.9354543165854191,0.06454568341458085,-2.673659068278414,1,356.33862175088143,1.032391047134297,1,97,358.39055685816857,61,357.3568996406975,1.5901639344262295,0.04518960417288531,0.9548103958271147,3.0506457181585405,1,404.5537458691397,4.0673195707349805,1,42,409.6255833568721,67,405.5560423584393,0.6268656716417911,0.37162242527225875,0.6283775747277413,0.5252628664436044,1,374.10032098702504,1.2659431783831678,0,54,376.3702349230007,31,375.10216355128796,1.7419354838709677,0.9943616455913553,0.005638354408644651,-5.172508717630272
68,0,348.55017017250066,1.5659350796340732,1,68,351.1357251640002,63,349.56851324737363,1.0793650793650793,4.769003857429954e-05,0.9999523099614257,9.950740325623592,1,360.89422440648195,0.5982080035319086,1,55,362.50964442540135,95,361.9101935601211,0.5789473684210527,0.00019966369090285152,0.9998003363090971,8.51867646866015,0,412.1257700231654,1.8493948653922416,1,7,414.97903846115514,54,413.12776942663186,0.12962962962962962,0.049088975901025234,0.9509110240989748,2.9637860116191357,1,378.87026751552185,1.4656239691394148,0,16,381.3394798232621,10,379.87210968472937,1.6,0.9840163412269864,0.0159836587730136,-4.120075630208714
69,1,353.6368619518762,1.7993758037046064,1,10,356.43945315663586,44,354.6387369111326,0.22727272727272727,2.4773296216307195e-05,0.9999752267037837,10.605719476790162,0,365.01108936082164,1.098909829321201,1,54,367.11320273936144,80,366.01297024599626,0.675,0.0011584495730071476,0.9988415504269929,6.759513621776379,1,417.47936932470475,1.495933440135559,0,66,419.9989325453207,59,418.50091634386627,1.11864406779661,0.9097903652727042,0.0902096347272958,-2.3110779686172225,1,383.8402689575014,3.083788871532306,1,25,387.9440360611625,37,384.8585768719495,0.6756756756756757,0.37225586649274045,0.6277441335072595,0.5225512217342094
70,1,358.9404512781184,1.5659508820681367,0,14,361.5091494140215,8,359.94193236161664,1.75,0.9111867245735271,0.0888132754264729,-2.328211705987921,0,369.614057848783,1.4495520996570121,0,50,372.08312200865475,7,370.63267193546926,7.142857142857143,0.8618490389283431,0.13815096107165686,-1.8307331184024767,0,422.49948148250405,1.6159723141172435,1,28,425.13527558464557,41,423.51767561941233,0.6829268292682927,0.482754932539339,0.517245067460661,0.06900764165459837,1,390.4446877142036,1.14880365668796,1,19,392.59711645013886,37,391.44670687070175,0.5135135135135135,0.19385736884391824,0.8061426311560818,1.4251380120652741
71,0,364.0104762262199,2.249768988112919,1,59,367.280006953064,65,365.0289591526671,0.9076923076923077,7.797154775945891e-06,0.999992202845224,11.761743865943787,1,374.5840731178905,1.4996363464015303,1,62,377.10353362266324,43,375.60263940220466,1.441860465116279,0.11203064022611353,0.8879693597738865,2.0701648303095856,0,427.63616348411597,1.432647836743854,0,87,430.08878046661266,76,428.654548040402,1.144736842105263,0.9585508660579256,0.04144913394207443,-3.140955642150194,0,395.10078913424513,1.5826990959030809,0,68,397.701091355877,63,396.116224165482,1.0793650793650793,0.5427884011092214,0.45721159889077856,-0.17157325810406204
72,0,369.78100191405974,1.3490801993466448,1,37,372.13312763825525,52,370.7827804784465,0.7115384615384616,4.499240224964396e-05,0.9999550075977504,10.008971927931208,1,379.60416789300507,0.9655585865548346,1,75,381.5727680537966,70,380.6059397413628,1.0714285714285714,0.00767524974236844,0.9923247502576316,4.862049590256459,0,432.58954155152605,1.6491127918707207,0,28,435.24213917601446,18,433.5912928566977,1.5555555555555556,0.8196655032120551,0.18033449678794491,-1.5140828922762684,1,400.2011646396859,2.266218535864027,0,53,403.48778096241585,40,401.2198296892311,1.325,0.9536131426830646,0.04638685731693536,-3.0232419067619203
73,1,374.63426877181337,0.8155974012915976,1,72,376.4694702825218,51,375.6526406861376,1.411764705882353,0.004929648080761351,0.9950703519192386,5.307545837811563,1,384.0738056813716,1.2822880349849584,0,58,386.3758412329189,6,385.09223843508516,9.666666666666666,0.9018381884228766,0.09816181157712339,-2.2178178563955533,0,437.7431408530538,1.4827794908051146,0,62,440.2457741318067,17,438.76126150862547,3.6470588235294117,0.9920056109403594,0.007994389059640616,-4.820988835397124,0,405.988303035454,1.33236517063051,0,62,408.32420834724326,16,406.99020643910626,3.875,0.9999391690226473,6.083097735260297e-05,-9.707350569982534
74,0,378.9701847502438,1.1325010715954704,1,78,381.10614418539626,65,379.9723852397292,1.2,8.295994452167665e-05,0.9999170400554783,9.397069699393155,0,388.87725574863725,1.366190289001679,0,43,391.2628261475038,7,389.8953372931719,6.142857142857143,0.8315430565787781,0.16845694342122183,-1.596602890624907,0,442.74628751350974,2.0331420579896076,0,68,445.7996570871037,63,443.7644662430248,1.0793650793650793,0.9025806268739636,0.09741937312603649,-2.2262329298718257,1,410.82490029650216,1.1822155412955908,1,43,413.0106919295067,97,411.82677802118997,0.44329896907216493,1.4514294603196198e-05,0.9999854857053968,11.140362045050521
75,0,383.60706408480473,2.116574584535556,1,60,386.7429662361101,61,384.62507609861495,0.9836065573770492,3.516240644807489e-05,0.9999648375935519,10.255497881686725,0,393.763780022171,1.7828745029692072,1,9,396.5662353259686,7,394.78203815894085,1.2857142857142858,0.6128715752655203,0.38712842473447967,-0.4593989271338541,0,448.2998883952823,2.7165710289846174,1,15,452.0199470223306,42,449.30183209515235,0.35714285714285715,0.20166417689092708,0.7983358231090729,1.3759255165979278,1,415.51136136027344,1.6825772195879836,0,45,418.1975849924347,40,416.51341844264243,1.125,0.8605412691833443,0.1394587308166557,-1.8197928529871683
76,0,389.2440259871073,2.2332210701715667,1,53,392.4966575868457,57,390.26211622297706,0.9298245614035088,5.858904824551647e-05,0.9999414109517545,9.744904178091021,1,399.06713705258153,1.3824596889753593,1,69,401.45273115510645,61,400.06893655519525,1.1311475409836065,0.01821428975881445,0.9817857102411855,3.987166629268823,1,454.52176133972534,1.6159557215723908,1,62,457.15730576335045,43,455.53918234235607,1.441860465116279,0.9539730458176948,0.0460269541823052,-3.0314082318231006,0,420.69823269484914,1.582846453631646,0,80,423.28450669728045,60,421.69998360497993,1.3333333333333333,0.9335798112547972,0.06642018874520286,-2.643025398481695
77,1,394.9976762514998,1.7625924689491512,1,26,397.76693932455964,84,396.0030636976444,0.30952380952380953,1.81038961599711e-10,0.999999999818961,22.43230885018928,1,403.95360206696205,1.0819941096415278,1,42,406.0389834291709,67,404.955680087558,0.6268656716417911,0.003657597832034565,0.9963424021679654,5.607284373894582,0,459.6575497134763,2.8337725752644474,0,60,463.51169874232437,40,460.675933479637,1.5,0.954671150296088,0.04532884970391203,-3.047423247354112,1,425.7848671903921,2.700078814654262,0,46,429.488904515747,36,426.78672081636614,1.2777777777777777,0.9457612929120698,0.054238707087930195,-2.8585953976630156
78,0,400.2678987300751,1.9480562013632152,0,95,403.2212092420523,16,401.27198208002665,5.9375,0.9999352953090503,6.470469094960437e-05,-9.645612149216177,1,408.54014471083065,0.832118455087766,1,10,410.37533990056545,44,409.54193591716466,0.22727272727272727,0.019285548866566304,0.9807144511334337,3.9289252857616774,1,466.0118150877679,1.8660727583774133,0,58,468.881319740598,6,467.0136051089212,9.666666666666666,0.9944982328598178,0.005501767140182291,-5.197168982531074,1,431.9890820956498,1.3658141909836559,1,10,434.37526325874205,44,433.0074812691746,0.22727272727272727,0.012949447028176131,0.9870505529718239,4.333668170231367
79,1,405.7216704757011,0.8321255661721807,1,50,407.55683603587386,62,406.72340676857857,0.8064516129032258,7.170624806152048e-06,0.9999928293751938,11.845510594776108,0,412.8765102686302,1.0489638539002044,0,62,414.9448139361775,16,413.8946882080345,3.875,0.7607022103968085,0.23929778960319145,-1.1565332097956218,0,471.3819966775336,1.9497818275849568,1,6,474.33550234962604,26,472.38385346399446,0.23076923076923078,0.24383222521415115,0.7561677747858488,1.131782888672414,0,436.8756308629527,2.4497919016575906,1,45,440.345680699902,60,437.89422006079985,0.75,0.06773183414593342,0.9322681658540666,2.6220642117828468
80,1,417.06385172571754,1.6323791953036562,1,62,419.7149512791075,43,418.081220975364,1.441860465116279,0.02212805878941837,0.9778719412105816,3.7885322902965317,0,424.45200345283956,2.799686321610352,1,53,428.2704622805759,57,425.46952875154966,0.9298245614035088,0.01722036715987052,0.9827796328401295,4.044292096342703,0,483.85838408221025,2.432998255797429,0,55,487.31036462150223,60,484.8756308629527,0.9166666666666666,0.7675690315553872,0.23243096844461272,-1.194635147786038,0,449.86906495000585,2.6161141409975244,1,71,453.5048005831195,64,450.8865155821986,1.109375,0.5988735596795713,0.40112644032042866,-0.40077380003109364
81,1,422.21588263528247,0.8652854019019287,1,87,424.08452921574644,89,423.2179409028322,0.9775280898876404,6.378819839003569e-08,0.9999999362118016,16.56769757813065,0,430.7717061299627,1.4993210877582897,1,14,433.29072614178585,7,431.7901147849625,2.0,0.651726023199938,0.34827397680006195,-0.6266348041178328,0,489.81079543546366,1.3989503230550326,0,71,492.2136327631888,69,490.8129090115399,1.0289855072463767,0.8908025777393452,0.10919742226065472,-2.098965371753732,0,456.00528631055204,1.6997362968249945,1,6,458.7247444449604,26,457.0233714106289,0.23076923076923078,0.2813608512340029,0.7186391487659971,0.9377213388257387
82,1,426.5887206148618,1.4660782892315183,1,46,429.07118958777573,40,427.6038712022273,1.15,0.008632982581798898,0.9913670174182011,4.743494764719305,0,435.79141888115555,1.0323408743861364,1,62,437.8271272550628,17,436.79347951906675,3.6470588235294117,0.7382757391361354,0.26172426086386463,-1.0370258749769103,1,494.71413152763853,2.249854321285966,0,15,497.9676456935413,19,495.7158950797166,0.7894736842105263,0.5516068172561454,0.44839318274385465,-0.2071650173329386,1,461.2253285425686,1.6493328408250818,1,54,463.8952424785384,78,462.2438197652955,0.6923076923076923,0.005138433230467698,0.9948615667695323,5.26585538457926
83,1,431.57233783241827,0.7322300598025322,1,56,433.32414197700564,46,432.59067024065007,1.2173913043478262,0.0037899187189260886,0.9962100812810739,5.571613587653332,0,440.32796340156347,0.9486009904212551,0,12,442.2797999411414,3,441.32989880513924,4.0,0.7384194568930976,0.2615805431069024,-1.0377697925990867,1,500.46822860596876,2.8832622552727116,1,43,504.37160657459754,97,501.4866226437007,0.44329896907216493,0.07621465015555162,0.9237853498444484,2.494926035819097,0,466.3954255892895,2.0163480170886032,0,28,469.4319675417937,18,467.4138844170229,1.5555555555555556,0.9844574061147128,0.015542593885287174,-4.148506384962836
84,0,435.82519422183395,1.7161198693938786,0,12,438.56098852149444,3,436.84355981518456,4.0,0.9782581676467405,0.021741832353259553,-3.806535447278601,0,444.78112438296375,1.832547491256264,1,41,447.6334454648022,22,445.799595457589,1.8636363636363635,0.4346505937822388,0.5653494062177612,0.2629014824493553,1,506.87220528947364,2.283111737066065,1,14,510.1588105504925,57,507.87407866847934,0.24561403508771928,0.07560525572642984,0.9243947442735702,2.5036133918697834,1,471.93244931862864,1.316059030010365,0,62,474.2518782185216,43,472.93419627813273,1.441860465116279,0.9761269754121804,0.023873024587819616,-3.710843532543014
85,1,441.0620759267622,1.0155519692780217,1,40,443.0972640053951,93,442.08044942132256,0.43010752688172044,4.6158410427210583e-11,0.9999999999538416,23.798941930427766,0,450.1348157337052,1.082282109069638,1,12,452.23682639640174,23,451.15323466029076,0.5217391304347826,0.2054820487890625,0.7945179512109375,1.3523769037751407,1,512.6595210676169,2.6332779589574784,0,54,516.3131336036895,78,513.6780146607052,0.6923076923076923,0.46517079912573034,0.5348292008742697,0.13954279712897394,0,476.7523007362033,2.0164558687392855,1,87,479.7721762525034,76,477.7540686339489,1.144736842105263,0.5355791821913547,0.46442081780864525,-0.1425576687185889
86,1,445.5982178800623,1.382285862142453,0,41,447.98385662447254,7,446.6003606906452,5.857142857142857,0.9976098008155396,0.002390199184460386,-6.033985515462479,1,454.7374827901658,1.232492972863838,1,37,456.9733499785798,54,455.7394573047786,0.6851851851851852,0.014472526181472656,0.9855274738185273,4.220924898235299,0,518.8134123191849,2.499977679050062,1,22,522.3173524595477,31,519.8153378462448,0.7096774193548387,0.5119645725993038,0.4880354274006962,-0.04786742815282086,0,482.27272835017357,1.7827374168118695,1,37,485.0591576115403,52,483.274529037968,0.7115384615384616,0.11417668048145424,0.8858233195185458,2.0487704396495947
87,1,450.4850736097287,3.083502847410273,1,46,454.5881892578909,36,451.5033514995448,1.2777777777777777,0.03351394285460629,0.9664860571453937,3.3617053155573497,1,459.4741861250659,0.882167541392846,1,33,461.3595054627076,25,460.4760535781679,1.32,0.2913160516711676,0.7086839483288324,0.8890008900798547,0,524.8175968047435,1.5326168244646396,0,86,527.3704241571832,59,525.836013756023,1.4576271186440677,0.9854546035063597,0.014545396493640231,-4.2158285097386745,0,487.55955919099506,1.3157844626402948,1,77,489.87887944912654,72,488.56136580470775,1.0694444444444444,0.38381602686654426,0.6161839731334557,0.4733822355458478
88,1,457.0894066382025,0.882278553530341,1,28,458.9913335479796,82,458.1078133178962,0.34146341463414637,4.6336712244965383e-10,0.9999999995366329,21.492501454517203,0,463.86046328798693,1.61592688212113,1,24,466.47950562073675,90,464.8623540496774,0.26666666666666666,0.00012868655369657755,0.9998713134463034,8.958002231867935,1,529.870986921509,1.1656632777157938,1,26,532.0573403311719,84,530.8894378480181,0.30952380952380953,0.03845052410613603,0.961549475893864,3.2191736939853217,1,492.3794659171108,1.4825037382688606,1,15,494.88205376385304,42,493.39790420167265,0.35714285714285715,0.041593551793495775,0.9584064482065042,3.137326805145156
89,0,461.49237828665355,0.4652407600224251,1,24,462.9772527856694,90,462.510717015859,0.26666666666666666,1.776290226018773e-11,0.9999999999822371,24.753908976146516,0,468.9806135691615,1.2508040477987379,1,68,471.2514657748834,63,469.99905145866796,1.0793650793650793,0.013930742913589644,0.9860692570864104,4.259628474303038,0,534.5573867508356,1.9997949633689132,0,12,537.5607167195703,3,535.5592174632766,4.0,0.7355045753261984,0.26449542467380166,-1.022732807594889,1,497.3828575153457,2.0996284451830434,1,50,500.50263446393365,62,498.4013080467994,0.8064516129032258,0.08996238791848232,0.9100376120815177,2.314094259650628
90,0,465.4782220677007,2.8332878354849527,1,38,469.33141425892245,43,466.4968800061615,0.8837209302325582,0.0011401107258151022,0.9988598892741849,6.775489132237895,0,473.75041234487435,1.63281218209886,1,45,476.40289105603006,60,474.7687380370626,0.75,0.009281644936718014,0.990718355063282,4.670391503973201,0,540.0612391876784,2.383318946522195,0,71,543.4647097981069,64,541.079639546384,1.109375,0.9200565398497744,0.07994346015022556,-2.443115487825659,0,503.0043685839628,2.750042567815399,0,50,506.77346770673466,7,504.02180696927826,7.142857142857143,0.999949878614823,5.012138517697021e-05,-9.901012668466912
91,0,471.8324937629659,1.3824893185374094,1,71,474.2180673223338,64,472.8342798335216,1.109375,4.904035025043996e-05,0.9999509596497496,9.92281808267121,1,478.9038232023304,1.048898273773375,1,82,480.9724962518667,40,479.9222219807998,2.05,0.2606294946012796,0.7393705053987204,1.0426993179175386,0,545.9649932543398,1.8663370541471522,0,45,548.8347092647746,42,546.9668148803612,1.0714285714285714,0.8147538097373099,0.18524619026269012,-1.4812002950842516,0,509.27403876734024,1.5660792768758256,1,15,511.84354954361334,42,510.27579876386153,0.35714285714285715,0.041593551793495775,0.9584064482065042,3.137326805145156
92,1,476.7191764559393,1.7828551449783845,1,88,479.52166652509186,96,477.73750609875424,0.9166666666666666,6.43591002713606e-09,0.99999999356409,18.861372581102682,1,483.47368400260166,2.3331248728500213,0,6,486.82639757748984,8,484.49204129967256,0.75,0.559602767159338,0.440397232840662,-0.2395500661247557,1,551.3352613624447,2.4666594238806283,0,69,554.8056663591706,61,552.3371292106021,1.1311475409836065,0.9212265881620856,0.07877341183791448,-2.4591305033566697,1,514.3442094929196,1.7662037210830022,1,43,517.1303183598648,93,515.3625043703651,0.46236559139784944,3.528594194024404e-05,0.9999647140580598,10.251990632100112
93,0,482.0226879551774,1.2657654009526595,1,96,484.30792037941865,89,483.04093937591824,1.0786516853932584,1.9552277685797037e-07,0.9999998044772231,15.447588763117086,1,489.327531599949,0.8820897144032642,1,42,491.21272175265767,39,490.3293998431618,1.0769230769230769,0.09439808809184813,0.9056019119081519,2.2610789989706537,1,557.3060070992506,2.083102650663932,0,74,560.4096351414628,60,558.324315803824,1.2333333333333334,0.9527611754947265,0.04723882450527353,-3.0041481618514188,0,519.631015839972,1.5492959026159951,0,62,522.2003251351707,17,520.6494928405154,3.6470588235294117,0.9999240422791706,7.59577208293568e-05,-9.485257716744034
94,0,486.809221907708,1.8493525938683888,1,86,489.66169192751113,59,487.81108224971103,1.4576271186440677,0.0017811145701269737,0.998218885429873,6.328733245003058,1,493.7139016021829,1.3326152442168677,1,17,496.06604826460534,82,494.73216013400815,0.2073170731707317,0.000264852188096798,0.9997351478119032,8.236073781094781,0,562.9097503017256,1.7326733181689633,0,56,565.6464212416322,59,563.9115624463011,0.9491525423728814,0.7955487712584999,0.20445122874150018,-1.358702698056496,1,524.7043723370443,1.799444149248302,0,82,527.5207416874327,40,525.7195509737357,2.05,0.999380355457756,0.0006196445422439518,-7.385744726695397
95,0,492.16275483899517,1.2823524299165001,1,87,494.44832504034275,76,493.1645638230839,1.144736842105263,5.689503577266386e-06,0.9999943104964227,12.076881868880967,1,498.56687255926954,1.2154370065400144,1,43,500.7856944480154,97,499.5689359625976,0.44329896907216493,0.00010525100890956818,0.9998947489910904,9.159057243060413,1,568.1467122040194,2.4335422547301278,0,53,571.6003302709578,40,569.1648506373313,1.325,0.9153483852692235,0.08465161473077651,-2.380760557961603,1,530.0213360566268,1.049196939857211,1,55,532.0737882987014,95,531.0228752140829,0.5789473684210527,0.00013760265053641696,0.9998623973494636,8.891002757912593
96,1,496.94926706317347,1.1822360844817013,1,52,499.13476200540026,68,497.9512336765765,0.7647058823529411,1.1574597141850163e-06,0.9999988425402858,13.66928169829113,0,503.2867751372396,1.2655990803032182,1,59,505.5555678902456,65,504.2885730596172,0.9076923076923077,0.008165261692641201,0.9918347383073588,4.799667722511621,1,574.1006520480878,2.416336165260873,0,12,577.537126050127,9,575.1192266286816,1.3333333333333333,0.6478843803139294,0.3521156196860707,-0.6097526683085757,1,534.5744976306305,1.2491270140744746,1,42,536.8433484575944,39,535.5927407550917,1.0769230769230769,0.8306994207631213,0.16930057923687875,-1.5905923110601368
97,0,501.63562146048935,0.8319801837496925,1,6,503.47077121822804,26,502.6375351357274,0.23076923076923078,0.007498741337904069,0.9925012586620959,4.885493095888086,0,508.0565754931886,1.7159341907390626,0,6,510.7924855457095,26,509.0752646414621,0.23076923076923078,0.12880323139979144,0.8711967686002086,1.911581960612049,0,580.0378318264993,1.8328599844826385,0,12,582.8743481000565,23,581.0396538475907,0.5217391304347826,0.41244483967496415,0.5875551603250359,0.35386765669282144,0,539.3442727026704,1.5161838692583842,0,78,541.8803166808648,34,540.3625810121885,2.2941176470588234,0.999701540353965,0.000298459646034991,-8.116577319239026
98,1,505.97215689449513,1.0491649399191374,1,6,508.0408947340329,8,506.9904363645619,0.75,0.7912636786096023,0.20873632139039763,-1.3325594253407904,0,513.2933856920863,1.7990964956115931,1,71,516.0958461316623,64,514.2954289473128,1.109375,0.013669906299823675,0.9863300937001763,4.2787942829313685,0,585.374674617924,1.7162672271224437,0,14,588.0943938876153,7,586.3764251329849,2.0,0.7186727991800798,0.28132720081992024,-0.9378877688494918,1,544.3808948525548,1.0823409731528955,1,52,546.4667743866303,68,545.3826350960298,0.7647058823529411,0.03403332593382924,0.9659666740661708,3.3457891156379445
99,1,510.5418995715445,0.6655923642538255,1,25,512.2268609839666,37,511.55995425193396,0.6756756756756757,0.0017953829966851353,0.9982046170033149,6.320739914546508,0,518.5968268704746,1.2992148163612,1,60,520.8992898779543,61,519.5987907184463,0.9836065573770492,0.013543784491427124,0.9864562155085729,4.288191207839972,0,590.5947927016387,2.132994502724614,1,45,593.731424530517,60,591.5966265745665,0.75,0.5602704851048257,0.43972951489517437,-0.2422598772253122,1,548.9672644597304,1.3492164953786414,0,56,551.3369253591663,46,549.9857272380759,1.2173913043478262,0.8949167855909326,0.10508321440906741,-2.1419781824964472
