,self_acceptUp,self_cue_times,self_decision_times,self_decisions,self_punishment_values,self_response_times,self_reward_values,self_trial_times,self_punishment_reward_ratio,self_prob_reject,self_prob_accept,self_SV,harm_other_acceptUp,harm_other_cue_times,harm_other_decision_times,harm_other_decisions,harm_other_punishment_values,harm_other_response_times,harm_other_reward_values,harm_other_trial_times,harm_other_punishment_reward_ratio,harm_other_prob_reject,harm_other_prob_accept,harm_other_SV,harm_self_acceptUp,harm_self_cue_times,harm_self_decision_times,harm_self_decisions,harm_self_punishment_values,harm_self_response_times,harm_self_reward_values,harm_self_trial_times,harm_self_punishment_reward_ratio,harm_self_prob_reject,harm_self_prob_accept,harm_self_SV,other_acceptUp,other_cue_times,other_decision_times,other_decisions,other_punishment_values,other_response_times,other_reward_values,other_trial_times,other_punishment_reward_ratio,other_prob_reject,other_prob_accept,other_SV
0,0,0.0044673471711575985,2.3087297370657325,0,68,3.3371053733862936,63,1.0264904061332345,1.0793650793650793,0.9017913891205583,0.0982086108794417,-2.2172893187151823,0,0.003084239549934864,1.809666821733117,0,60,2.836445227265358,61,1.0254980134777725,0.9836065573770492,0.6761529253737739,0.32384707462622603,-0.7361478589512515,1,0.004213323350995779,1.37502212356776,0,41,2.4033092660829425,7,1.026382949668914,5.857142857142857,0.999998334536244,1.6654637559767017e-06,-13.305405275731454,1,0.003674460109323263,1.4741981849074364,0,56,2.503943496849388,46,1.0275349467992783,1.2173913043478262,0.9999972580869653,2.7419130347663548e-06,-12.806851951396332
1,0,5.837434459477663,1.2159848706796765,0,78,8.056143274065107,34,6.839452429674566,2.2941176470588234,0.9981921021002897,0.0018078978997102576,-6.313780955886421,1,5.337964631151408,1.3651610109955072,0,46,7.706600992009044,40,6.340174996294081,1.15,0.8495216953313836,0.1504783046686164,-1.730854560956264,0,4.903586203698069,2.0330464402213693,1,80,7.956890571396798,60,5.921974308323115,1.3333333333333333,0.9988125078296783,0.0011874921703216561,-6.734723417692734,0,5.00430853292346,1.7648550756275654,1,60,7.773766857106239,70,6.0069435886107385,0.8571428571428571,1.770823050706305e-05,0.9999822917694929,10.94146331767733
2,1,10.55750228324905,1.7829915271140635,0,54,13.344259924720973,78,11.559269390068948,0.6923076923076923,0.29455369859842606,0.7054463014015739,0.8733693294879992,0,10.207316051702946,2.3652214552275836,0,45,13.59361163014546,42,11.22699916549027,1.0714285714285714,0.7827974422242804,0.21720255777571962,-1.2820436039245748,0,10.457391903270036,1.9647582066245377,1,58,13.42705558007583,58,11.460341032128781,1.0,0.28134878746434167,0.7186512125356583,0.9377810030722527,1,10.274415941908956,0.8993851277045906,1,43,12.194143539760262,97,11.293500143568963,0.44329896907216493,0.0,1.0,inf
3,1,15.844756911043078,1.2990606245584786,1,43,18.163562278728932,93,16.86272625112906,0.46236559139784944,0.025736455113248957,0.974263544886751,3.6337733733123887,0,16.094600862357765,1.0464923344552517,0,62,18.14656439330429,17,17.098772704135627,3.6470588235294117,0.9994871649430991,0.0005128350569009651,-7.5750433244013005,1,15.927382690366358,1.2490004962310195,1,24,18.18050880683586,69,16.929252908565104,0.34782608695652173,8.850362331891404e-09,0.9999999911496377,18.542807428457632,1,14.694130897987634,1.0822089901193976,1,28,16.795896977651864,82,15.711901917587966,0.34146341463414637,0.0,1.0,inf
4,0,20.664496992714703,1.415903804358095,0,86,23.09907334530726,59,21.682153444737196,1.4576271186440677,0.9901658270640543,0.009834172935945674,-4.612009076837405,0,20.64789693336934,1.1823375434614718,0,71,22.83323614858091,69,21.649619003292173,1.0289855072463767,0.7715551313023494,0.22844486869765054,-1.2171132227598362,1,20.680973793379962,1.1324777104891837,1,55,22.832987654954195,95,21.69882184965536,0.5789473684210527,3.4333373810646606e-08,0.9999999656666262,17.187147924101332,1,19.296951789874583,0.8166669034399092,1,15,21.13349499227479,42,20.314617328345776,0.35714285714285715,3.8191672047105385e-13,0.9999999999996181,28.593573819309274
5,0,25.600708106998354,2.500107851345092,0,45,29.104528344701976,60,26.60266010230407,0.75,0.4988078649335508,0.5011921350664492,0.004768549301804601,1,25.334603453986347,1.0995177887380123,0,94,27.452981445007026,46,26.352529337164015,2.0434782608695654,0.9997036085105062,0.00029639148949379165,-8.123532942441368,0,25.333989134058356,1.2326738187111914,1,28,27.586376091465354,41,26.35184193123132,0.6829268292682927,0.003763610222656366,0.9962363897773436,5.578605906220238,1,23.633665658533573,1.0320619489066303,0,42,25.6851649931632,39,24.65135608566925,1.0769230769230769,0.9950389698261836,0.0049610301738164525,-5.301168486541194
6,1,31.604626319836825,1.8823433900251985,1,42,34.490928614046425,67,32.60680784564465,0.6268656716417911,0.257670919536402,0.742329080463598,1.0581093844171552,1,29.953618282917887,0.7994868950918317,1,25,31.77281199535355,37,30.971954634413123,0.6756756756756757,0.2669323387816467,0.7330676612183533,1.0102427913992187,0,30.086935497354716,1.916127408389002,0,78,33.006574601400644,34,31.088707740418613,2.2941176470588234,0.9999999362414271,6.375857290787022e-08,-16.56816212120432,1,28.1858389666304,1.6659421250224113,0,98,30.855606860481203,73,29.187668493483216,1.3424657534246576,0.9999999999994681,5.319480083802038e-13,-28.2622306389529
7,0,36.991693056654185,1.2993644261732697,1,7,39.29505668301135,54,37.99357473105192,0.12962962962962962,0.027432652065919605,0.9725673479340804,3.568205340325662,0,34.27398769604042,1.499054224230349,0,43,36.792536195367575,7,35.29222093708813,6.142857142857143,0.9979279929644918,0.002072007035508274,-6.177163402463198,0,35.50756264850497,1.199193206615746,1,14,37.726593043189496,57,36.52540675457567,0.24561403508771928,2.494842021860677e-08,0.9999999750515798,17.506455309696637,0,33.356290315743536,1.5998638621531427,0,45,35.9761327970773,42,34.37424740893766,1.0714285714285714,0.9942001777519689,0.005799822248031074,-5.144111302257947
8,0,41.79508789302781,1.1156591828912497,0,60,43.91433343756944,40,42.796924135647714,1.5,0.976164734546455,0.023835265453544995,-3.712465131839468,1,39.2934231068939,1.14897979516536,1,42,41.46180789312348,39,40.31168163148686,1.0769230769230769,0.7811528468385858,0.21884715316141418,-1.2723972818915057,1,40.22687709191814,1.9331355658359826,0,16,43.16365235252306,10,41.22885516099632,1.6,0.9195290587451608,0.08047094125483926,-2.435965505257553,1,38.47619442688301,1.3156555481255054,1,87,40.81179264374077,89,39.4943553712219,0.9775280898876404,0.05023914583062661,0.9497608541693734,2.9394157002148806
9,1,46.414695708081126,2.249912296421826,1,37,49.684583463706076,54,47.43282109731808,0.6851851851851852,0.43397304016818383,0.5660269598318162,0.265659296537729,0,43.963032581377774,1.0825100266374648,0,62,46.048612230457366,17,44.96483603399247,3.6470588235294117,0.9994871649430991,0.0005128350569009651,-7.5750433244013005,1,45.664032796397805,0.8987154993228614,1,28,47.566347694490105,82,46.66604405082762,0.34146341463414637,2.062290338500361e-10,0.999999999793771,22.302033749735084,1,43.3125938270241,1.3329228651709855,1,17,45.665898273233324,82,44.33118104189634,0.2073170731707317,0.0,1.0,inf
10,1,52.185627214144915,1.0658408314920962,0,66,54.27157426951453,59,53.203610776457936,1.11864406779661,0.9176102510651347,0.0823897489348653,-2.4103117143121144,1,48.549459635745734,1.5501656094565988,0,16,51.10215521464124,10,49.5513006192632,1.6,0.8367703207014036,0.16322967929859641,-1.6343913406255766,1,50.066769619472325,1.599839763250202,1,42,52.67009737435728,39,51.06845139339566,1.0769230769230769,0.6544832071352047,0.34551679286479536,-0.6388046809177229,1,48.166268445085734,1.7665822813287377,0,32,50.95246154488996,16,49.184181686956435,2.0,0.9999999993308287,6.691712340361255e-10,-21.124981132671145
11,0,56.771830664016306,1.2995663019828498,0,62,59.09114052448422,17,57.78959812829271,3.6470588235294117,0.9981825279952471,0.0018174720047529575,-6.308489626226399,1,53.60304331127554,1.1156892073340714,1,19,55.721951473969966,37,54.60503994859755,0.5135135135135135,0.1277805775823092,0.8722194224176908,1.9207264681733571,0,55.170354953967035,1.1993622928857803,1,54,57.38968519959599,80,56.188593725673854,0.675,1.0599940232225435e-05,0.9999894000597678,11.454651595335035,0,53.453133148141205,1.3991283378563821,0,62,55.87231793208048,17,54.47152520297095,3.6470588235294117,1.0,4.8366372271647556e-24,-53.68582254038132
12,0,61.59169281972572,1.4492299472913146,0,9,64.06091600377113,7,62.609876677859575,1.2857142857142858,0.8186120156468895,0.18138798435311057,-1.5069719451580341,1,58.22324411291629,1.5161208505742252,0,58,60.75857281917706,58,59.24121266277507,1.0,0.706459201436,0.2935407985639999,-0.8782488163805386,0,59.891306133940816,1.9325161105953157,0,86,62.84314585337415,59,60.908987869974226,1.4576271186440677,0.9999219121302231,7.808786977687822e-05,-9.457597738819963,1,58.37329886807129,1.4172564926557243,0,45,60.80937092099339,40,59.39136262796819,1.125,0.9994461163483596,0.0005538836516404224,-7.4980018712608825
13,0,66.56141022453085,1.3328142231330276,0,77,68.91418291907758,72,67.5796268726699,1.0694444444444444,0.9070698088306194,0.09293019116938066,-2.278370835190276,1,63.259567187167704,1.1991560710594058,1,42,65.47838701400906,67,64.27798334090039,0.6268656716417911,0.05282525530767468,0.9471747446923253,2.886494204079165,1,65.34377834573388,1.1494435966014862,1,40,67.51318633882329,93,66.3620483269915,0.43010752688172044,2.379798580420811e-10,0.9999999997620201,22.15883507567571,1,63.31110879313201,0.8632335094735026,1,14,65.1782281207852,57,64.3131947144866,0.24561403508771928,0.0,1.0,inf
14,1,71.41459891851991,1.6806052015163004,1,24,74.10114662442356,69,72.41860364936292,0.34782608695652173,0.03746248259013063,0.9625375174098694,3.246233076614647,1,67.9793675551191,1.348046187311411,0,46,70.34833458159119,36,68.99885116331279,1.2777777777777777,0.9109250049357039,0.08907499506429603,-2.324981916094931,0,70.01415305258706,1.1826121103949845,1,59,72.21666635060683,65,71.03222589893267,0.9076923076923077,0.032072151896791246,0.9679278481032088,3.407169435967638,1,67.67902140272781,1.0486592426896095,1,43,69.73158937692642,93,68.68127127410844,0.46236559139784944,0.0,1.0,inf
15,0,76.60195215325803,1.2330246325582266,0,71,78.85434701154009,69,77.61958766682073,1.0289855072463767,0.8730008044710105,0.12699919552898958,-1.927755725319784,1,72.84966435655951,0.7156391926109791,1,4,74.5847516017966,22,73.86777078267187,0.18181818181818182,0.1225008435077326,0.8774991564922674,1.9689580783387017,1,74.71702941134572,2.084716835990548,0,75,77.82065543718636,70,75.73488536896184,1.0714285714285714,0.6740771098826711,0.3259228901173289,-0.7266836907166623,0,72.23252369556576,1.098580704536289,1,15,74.35114385886118,42,73.2506609368138,0.35714285714285715,3.8191672047105385e-13,0.9999999999996181,28.593573819309274
16,0,81.35444459179416,1.7824506885372102,0,38,84.14078781427816,43,82.35664429003373,0.8837209302325582,0.7272478699359235,0.27275213006407645,-0.9807039341745536,0,77.08586843824014,1.7495401492342353,1,7,79.85493683768436,54,78.10414592595771,0.12962962962962962,0.0018948194955397124,0.9981051805044603,6.266735081061038,0,80.32222066819668,1.1331303510814905,1,45,82.47348233452067,92,81.33852206170559,0.4891304347826087,2.463230286409157e-09,0.9999999975367697,19.821792221376395,0,76.8517245980911,1.232675004284829,1,12,79.10417358018458,23,77.86988435778767,0.5217391304347826,6.735314168471174e-05,0.9999326468583153,9.605493653648319
17,1,86.64151354087517,1.2993000312708318,1,40,88.94454808207229,93,87.6434216843918,0.43010752688172044,0.018632713238968868,0.9813672867610311,3.964027977691188,0,82.35668300651014,2.0827988157980144,0,9,85.45816385233775,7,83.37412415025756,1.2857142857142858,0.7345352457014636,0.2654647542985365,-1.0177559007430825,1,84.97358584031463,1.5661793984472752,0,98,87.56007215380669,73,85.99205335229635,1.3424657534246576,0.9997699837593805,0.00023001624061944038,-8.377130597446662,0,81.60537614533678,1.3156867576763034,1,24,83.94130976870656,90,82.62338933721185,0.26666666666666666,0.0,1.0,inf
18,0,91.44572259765118,1.3652953314594924,0,28,93.83093649940565,18,92.46353272814304,1.5555555555555556,0.9214567256671332,0.07854327433286679,-2.462306076971041,0,87.95961886132136,0.9146597580984235,1,12,89.89500824874267,23,88.97901239525527,0.5217391304347826,0.28832938069821556,0.7116706193017844,0.9035116814245168,1,90.06061299191788,0.9991316562518477,1,37,92.07933255238459,54,91.07842312287539,0.6851851851851852,0.0006056045961279066,0.9993943954038721,7.408677478442199,0,86.4423807784915,1.2322333259508014,0,78,88.69385751569644,34,87.4598511569202,2.2941176470588234,1.0,3.626319416905869e-23,-51.67123893970252
19,1,96.33231407636777,1.7339518405497074,1,17,99.0853390567936,82,97.34983107168227,0.2073170731707317,0.004680300929978398,0.9953196990700216,5.359701582009262,0,92.39561150688678,1.4660698086954653,0,41,94.88143593538553,22,93.41399763617665,1.8636363636363635,0.9745606920362122,0.025439307963787794,-3.6456912617684845,1,94.58004563720897,1.0157992709428072,0,94,96.61634105769917,46,95.59841280383989,2.0434782608695654,0.9999999822485007,1.7751499241128173e-08,-17.846795842551483,1,91.19461050163954,1.0828932356089354,0,53,93.28164436947554,40,92.19630847265944,1.325,0.9999999313843406,6.861565935387589e-08,-16.494744989183985
20,0,108.60733643686399,1.6830624798312783,0,45,111.30956963635981,42,109.62466064281762,1.0714285714285714,0.8646658286672797,0.13533417133272033,-1.854596044020771,0,104.38818080816418,1.1496067568659782,1,35,106.55629616277292,62,105.40529997739941,0.5645161290322581,0.03893808678391131,0.9610619132160887,3.2060659663923263,1,106.13905428769067,1.2157778590917587,0,62,108.37346518877894,43,107.1562319258228,1.441860465116279,0.9987995650624311,0.0012004349375689203,-6.723870183845747,0,102.80402179760858,1.2830883166752756,0,71,105.10568113205954,64,103.82060961052775,1.109375,0.9997946789114671,0.0002053210885328793,-8.49073017647568
21,1,113.8096281052567,0.9988128421828151,1,14,115.81252429587767,57,114.81191274197772,0.24561403508771928,0.04279872554445341,0.9572012744555466,3.107505362328908,1,109.05695551913232,0.9146676594391465,1,14,110.99234767258167,57,110.07633957220241,0.24561403508771928,0.0035048392005233575,0.9964951607994766,5.65009964117848,0,110.87489096308127,1.482602312695235,0,45,113.37693777307868,42,111.89237951440737,1.0714285714285714,0.6393703053421933,0.36062969465780675,-0.5726321388127649,1,107.60570207051933,1.3327992111444473,0,94,109.95854192553088,46,108.62394597753882,2.0434782608695654,1.0,7.562830790705311e-25,-55.54138176153108
22,1,118.31303471466526,1.482605868484825,0,45,120.81541890650988,40,119.33127822680399,1.125,0.8870736434581334,0.11292635654186657,-2.061192109945501,0,113.4936320153065,1.1298924325965345,1,55,115.64483955781907,60,114.51369912782684,0.9166666666666666,0.5314442727487952,0.46855572725120476,-0.12594330042413607,1,115.87731703137979,1.332457878626883,0,54,118.21330477809533,31,116.87905687931925,1.7419354838709677,0.9998029555668909,0.00019704443310908967,-8.531884242032568,0,112.45876552956179,1.4158133356831968,0,40,114.8782667578198,15,113.4606361426413,2.6666666666666665,0.9999999999999745,2.5536450421922422e-14,-31.29866953509572
23,1,123.3157231034711,0.8331346176564693,1,15,125.15208852803335,56,124.31800299929455,0.26785714285714285,0.052444876763260706,0.9475551232367393,2.894122461240278,1,118.14619698701426,0.9153195093385875,1,52,120.0813398566097,68,119.1648379303515,0.7647058823529411,0.17982209865398047,0.8201779013460195,1.5175532482402667,1,120.71426556631923,0.8830868941731751,1,14,122.61729987012222,57,121.73227322706953,0.24561403508771928,2.494842021860677e-08,0.9999999750515798,17.506455309696637,0,117.37881154660136,1.2163633392192423,1,14,119.61476120958105,57,118.3965616277419,0.24561403508771928,0.0,1.0,inf
24,0,127.65389435132965,1.2659351718612015,1,60,129.93847915809602,70,128.67079149605706,0.8571428571428571,0.6487442869948177,0.3512557130051823,-0.6135241429685098,0,122.58278222335503,0.9989187181927264,1,54,124.6010652417317,80,123.6007187734358,0.675,0.04758692724942937,0.9524130727505706,2.996440754731555,0,125.11799596715719,1.3488461854867637,1,6,127.48649366153404,26,126.13580451766029,0.23076923076923078,0.0003530456777063318,0.9996469543222937,7.948560002787744,1,122.11565049132332,1.4663740056566894,0,82,124.60158632695675,40,123.13346891803667,2.05,1.0,4.70644692137426e-22,-49.10793879165523
25,1,132.43889002129436,1.147618415299803,0,56,134.59162249881774,46,133.4428876414895,1.2173913043478262,0.9341549126178837,0.06584508738211628,-2.6523374615602187,0,127.1027146205306,1.4157228665426373,0,50,129.5373075660318,7,128.12038489989936,7.142857142857143,0.9992827684649802,0.0007172315350198047,-7.239394358699693,1,129.98737464705482,1.232760732062161,0,14,132.24022580077872,8,131.00559682631865,1.75,0.922733539791471,0.077266460208529,-2.4800805333275244,1,127.10187551146373,1.5329547859728336,0,6,129.65527113806456,8,128.120226085186,0.75,0.7860248087112901,0.2139751912887099,-1.3011282754328275
26,1,137.09169281972572,1.1317650210112333,0,14,139.22755264583975,8,138.09404777688906,1.75,0.8758928274004516,0.12410717259954837,-1.9540982528269912,0,132.0386389209889,1.3006179542280734,1,53,134.35851845890284,57,133.05665606306866,0.9298245614035088,0.5666127102633682,0.43338728973663176,-0.2680442578534231,0,134.74063034309074,2.199776711408049,1,87,137.9605958466418,85,135.7589508923702,1.0235294117647058,0.3182833806793377,0.6817166193206623,0.7616719371333716,1,132.15518659492955,0.9653555392287672,1,52,134.12447693943977,68,133.15733296051621,0.7647058823529411,2.3079619215771174e-08,0.9999999769203808,17.584315870813118
27,1,141.72903333371505,1.0656555481255054,0,97,143.81415905756876,61,142.7465436127968,1.5901639344262295,0.9963752786654442,0.0036247213345557737,-5.616346560301583,0,136.85871243383735,1.1989980470389128,0,68,139.07746075466275,63,137.8771985131316,1.0793650793650793,0.8393045154102259,0.16069548458977412,-1.6530624170807677,1,140.46106438850984,1.316116978880018,0,33,142.7971449745819,25,141.47914276551455,1.32,0.946685810006805,0.053314189993194996,-2.8767647396162634,1,136.62538399919868,1.0160209001041949,0,97,138.66125946957618,61,137.6433979808353,1.5901639344262295,1.0,1.2038810070668348e-18,-41.26098116323017
28,1,146.31492863595486,0.9652528231963515,0,82,148.30058279354125,40,147.3334016785957,2.05,0.9978375145718169,0.002162485428183059,-6.134332230617287,0,141.57893788721412,1.6826867768540978,0,87,144.28106718556955,85,142.59707196755335,1.0235294117647058,0.780496190880781,0.21950380911921902,-1.2685602736028705,0,145.29760127002373,1.4497980447486043,1,53,147.76677270093933,57,146.3153774254024,0.9298245614035088,0.07877944424506911,0.9212205557549309,2.459047378804259,0,141.16164899943396,1.199176614638418,1,28,143.38122615776956,41,142.1798091540113,0.6829268292682927,2.7689972474931324e-06,0.9999972310027525,12.797022538818512
29,0,150.8014669395052,1.2811560747213662,0,87,153.10340637201443,76,151.82064951118082,1.144736842105263,0.9510155440273006,0.048984455972699445,-2.966027384603458,1,146.78211330669,1.3655303930863738,0,14,149.15074887732044,8,147.78389542596415,1.75,0.8358900505475383,0.1641099494524617,-1.6279604592701973,1,150.26717171212658,1.1156307384371758,1,43,152.40335311787203,93,151.28551319986582,0.46236559139784944,7.572387161758343e-10,0.9999999992427613,21.00134256643034,0,145.88144423160702,1.0324238240718842,1,7,147.91751091135666,54,146.8832461037673,0.12962962962962962,0.0,1.0,inf
30,0,155.60472587496042,1.1148109869100153,0,14,157.72369843255728,7,156.60702038835734,2.0,0.8866928415487249,0.1133071584512751,-2.0573962857893564,0,151.65182107221335,1.565565474331379,1,60,154.22074298281223,70,152.65397375868633,0.8571428571428571,0.3541975851396718,0.6458024148603282,0.6006386901107498,0,154.90413612825796,1.8000123258680105,1,22,157.7237501856871,31,155.92171475337818,0.7096774193548387,0.021568710743173236,0.9784312892568268,3.8147068761033665,0,150.41730073932558,1.3328351615928113,0,77,152.75445826072246,72,151.41927051218227,1.0694444444444444,0.9970492042429239,0.002950795757076167,-5.82272523890623
31,1,160.22408993775025,1.4656996368430555,0,6,162.71042320458218,8,161.24262658506632,0.75,0.7452466296036402,0.25475337039635987,-1.0734193078168754,0,156.72209606599063,1.7832182915881276,0,12,159.52457238640636,3,157.74005671497434,4.0,0.8876666107075687,0.11233338929243131,-2.067125094268819,0,160.2247386276722,1.4823779184371233,0,53,162.72671472188085,15,161.242588264402,3.533333333333333,0.9999995754641905,4.245358095458219e-07,-14.672269053218558,1,155.2544551002793,1.0817586206831038,0,58,157.35605762526393,6,156.27298937737942,9.666666666666666,1.0,1.0366023563290678e-27,-62.13384911093593
32,1,165.21060572285205,0.9650647742673755,0,69,167.17900639027357,61,166.21255021216348,1.1311475409836065,0.9264892134907187,0.07351078650928132,-2.533970252766178,1,162.02632053010166,1.2482806951738894,0,82,164.2948765354231,40,163.04528344841674,2.05,0.9992493023630252,0.0007506976369747932,-7.193756621601093,1,165.2276901267469,1.03192881308496,1,19,167.27963943593204,37,166.24590045399964,0.5135135135135135,0.0005990712833015,0.9994009287166985,7.419530712288783,0,159.85710216592997,1.0492834388278425,0,41,161.92650249507278,22,160.87534370273352,1.8636363636363635,0.9999999999686136,3.138643152766263e-11,-24.18464543332581
33,0,169.6806447072886,1.3659076760523021,0,96,172.06633900292218,89,170.6986401216127,1.0786516853932584,0.931751886426518,0.068248113573482,-2.61391676922909,1,166.7952629053034,1.1494570286013186,0,12,168.94763311184943,9,167.79689292609692,1.3333333333333333,0.7642159498219921,0.23578405017800783,-1.1759340615608183,1,169.78027508873492,0.9990787184797227,1,88,171.78284456394613,96,170.7821089606732,0.9166666666666666,0.007670949795050341,0.9923290502049497,4.862614315935686,0,164.42731750570238,1.0324483183212578,1,7,166.4633513954468,54,165.42907315585762,0.12962962962962962,0.0,1.0,inf
34,1,174.56684349570423,1.316222460474819,0,33,176.8862058990635,25,175.56846917094663,1.32,0.908015735746038,0.09198426425396199,-2.2896441868658064,1,171.44866303540766,1.3489591726101935,0,53,173.81724250735715,40,172.46717400383204,1.325,0.9423010327898238,0.057698967210176144,-2.793085517192758,1,174.2832534518093,1.084068146534264,0,46,176.38649863936007,40,175.30143414949998,1.15,0.8549841748277756,0.14501582517222442,-1.774240084207982,0,168.9636915428564,0.9824197948910296,0,62,170.9663119809702,16,169.98174779629335,3.875,1.0,1.4907426326619832e-24,-54.86276782488279
35,1,179.38668115716428,1.0323795774020255,0,74,181.42273954115808,60,180.38842456042767,1.2333333333333334,0.9603684930723198,0.039631506927680284,-3.1876926263598655,1,176.31823885068297,1.1159377004951239,1,87,178.43756380258128,89,177.32027815422043,0.9775280898876404,0.6624950520574237,0.33750494794257635,-0.6744329184642032,0,178.88798762345687,1.116698192898184,1,37,181.0225453292951,52,179.90451183123514,0.7115384615384616,0.001368185830306956,0.998631814169693,6.5929005054885215,0,173.46639099298045,1.5823705699294806,1,56,176.05257943086326,59,174.46820195158944,0.9491525423728814,0.07631957118196442,0.9236804288180356,2.493436747122784
36,0,183.92335267551243,1.1320763290859759,0,15,186.05915798293427,42,184.92542081838474,0.35714285714285715,0.1903172635557835,0.8096827364442165,1.4479499997671634,0,180.93861268879846,1.3326103719882667,0,96,183.2902780282311,89,181.95637067127973,1.0786516853932584,0.8849493996930228,0.11505060030697722,-2.0401584336254106,1,183.52309209341183,1.5333308838307858,0,69,186.07618510350585,61,184.54101758170873,1.1311475409836065,0.8892097363522107,0.11079026364778935,-2.0826942343567763,1,178.55306298518553,0.982183943502605,1,40,180.5389909199439,93,179.5550726596266,0.43010752688172044,0.0,1.0,inf
37,1,188.55972884595394,1.3992610783316195,0,26,190.96254033548757,84,189.5614923974499,0.30952380952380953,0.010195774166993243,0.9898042258330068,4.575533834797599,1,185.79134469199926,0.9654598347842693,1,88,187.76006654417142,96,186.79330656398088,0.9166666666666666,0.4468162784175319,0.5531837215824681,0.21354267356610704,0,188.5762451523915,1.398996782489121,1,12,190.97885200055316,23,189.57807507412508,0.5217391304347826,0.012010287527852381,0.9879897124721476,4.409908708706977,1,183.03935477091,1.0486817611381412,0,74,185.09176630107686,60,184.04123921087012,1.2333333333333334,0.9999999365040713,6.349592875493663e-08,-16.572289983702717
38,0,193.46315584005788,2.482260585296899,1,6,196.96647395566106,26,194.48252014024183,0.23076923076923078,0.3130399576265658,0.6869600423734342,0.7859452855057001,1,190.26107197394595,1.149149276316166,1,43,192.41334025468677,97,191.26291730254889,0.44329896907216493,0.0007529924443772096,0.9992470075556228,7.1907020881567485,1,193.47962315939367,1.3820735635235906,0,53,195.88203405728564,40,194.4982139300555,1.325,0.9887386874161697,0.011261312583830292,-4.475056891300216,0,187.59256274346262,1.3661751323379576,0,43,189.9786900258623,7,188.61080665094778,6.142857142857143,1.0,7.125581804210372e-20,-44.08801048032865
39,1,199.46716847270727,1.0160209001041949,1,25,201.5024244878441,37,200.48532625706866,0.6756756756756757,0.5422462470262069,0.45775375297379306,-0.16938884630730724,0,194.91413946263492,1.0495690680108964,1,45,196.98335529863834,92,195.93227630853653,0.4891304347826087,0.0021405527640797617,0.9978594472359202,6.14454833530876,0,198.3830173634924,1.447337211575359,0,62,200.85211215307936,17,199.40297385957092,3.6470588235294117,0.9999999702063592,2.9793640804346953e-08,-17.328970832240824,1,192.4791297283955,0.9489328619092703,1,15,194.43142297724262,56,193.48120063683018,0.26785714285714285,0.0,1.0,inf
40,1,211.0261214193888,0.9652069960720837,1,10,213.0104007651098,44,212.0434412797913,0.22727272727272727,0.09930503210686337,0.9006949678931366,2.2049704063232167,0,206.48956486443058,1.2487978297285736,0,58,208.75759385852143,58,207.50757608097047,1.0,0.706459201436,0.2935407985639999,-0.8782488163805386,1,210.37568780081347,1.01794642675668,1,25,212.41129739535972,37,211.39248302020133,0.6756756756756757,0.006032488690086435,0.9939675113099136,5.104544877638506,0,203.9379047397524,1.9656091681681573,0,78,206.92284857761115,65,204.95642637461424,1.2,0.9999997460009663,2.539990337278959e-07,-15.185935120156927
41,0,215.51135404687375,1.4495033295825124,1,59,217.98060014471412,65,216.52925780694932,0.9076923076923077,0.7349588549386246,0.2650411450613754,-1.0199294396540715,1,211.2584092640318,1.099251517560333,1,37,213.37698439043015,54,212.27646749280393,0.6851851851851852,0.1526046581994569,0.8473953418005431,1.7143166971902772,0,214.91179714724422,1.313812589738518,0,41,217.2298910105601,22,215.91444089403376,1.8636363636363635,0.9992442757436076,0.0007557242563923706,-7.187077978580447,1,209.42325667571276,1.6656967923045158,0,33,212.09259158279747,25,210.42565232422203,1.32,0.9999913424182628,8.657581737162121e-06,-11.657066461898292
42,0,220.48125357506797,1.1492685843259096,0,78,222.6500828047283,65,221.49916365602985,1.2,0.957366335818602,0.04263366418139798,-3.111541934053098,0,215.87838014028966,1.1800781902857125,1,7,218.08008553879336,54,216.89873288199306,0.12962962962962962,0.0018948194955397124,0.9981051805044603,6.266735081061038,1,219.73015688639134,0.9824585109017789,1,26,221.7162554874085,84,220.7320053759031,0.30952380952380953,4.2163161850794495e-11,0.9999999999578368,23.889474218004402,1,214.59429113427177,1.2493046931922436,0,69,216.86280249804258,61,215.61221504257992,1.1311475409836065,0.9999429987438915,5.7001256108571517e-05,-9.77238025049931
43,1,225.15107164159417,2.1335692633874714,0,75,228.30455473484471,70,226.16898527834564,1.0714285714285714,0.9059192880877442,0.09408071191225577,-2.264797164862477,1,220.58086420362815,0.9323363578878343,1,24,222.5166387753561,69,221.58306192653254,0.34782608695652173,0.002691372713963469,0.9973086272860365,5.915008911970867,1,224.2170068928972,1.249708840623498,0,82,226.48631272371858,40,225.23479924583808,2.05,0.9999998425495844,1.5745041564304793e-07,-15.66415509211091,1,219.3638731124811,1.2660568510182202,0,75,221.63295573415235,70,220.36554659018293,1.0714285714285714,0.9973417620639606,0.002658237936039363,-5.927430028428404
44,0,230.80455552507192,1.8658523675985634,1,22,233.6745303515345,31,231.80637438455597,0.7096774193548387,0.6127585177757275,0.3872414822242724,-0.45892243970270524,1,225.0188910169527,0.9322917158715427,1,55,226.97001607110724,95,226.03621285269037,0.5789473684210527,0.00622664776023063,0.9937733522397694,5.072671057039197,1,228.98702620342374,1.5655362396501005,1,50,231.57267972873524,62,230.00523258000612,0.8064516129032258,0.003484352093037768,0.9965156479069622,5.65598272851316,0,224.1344842244871,1.5998208005912602,0,71,226.75304196821526,69,225.15175628196448,1.0289855072463767,0.9312469729627352,0.06875302703726482,-2.606003753968324
45,0,236.17530269548297,1.9997684946283698,1,55,239.19510590750724,60,237.1942316382192,0.9166666666666666,0.7495249201270591,0.250475079872941,-1.0960801319608402,0,229.4705671807751,1.048935784958303,1,6,231.53963960986584,26,230.48939261771739,0.23076923076923078,0.09452538032482938,0.9054746196751706,2.2595908745526554,1,234.07375745475292,0.9652547985315323,0,72,236.05878228042275,51,235.09173272084445,1.411764705882353,0.9993376620103153,0.0006623379896847167,-7.319072016449358,1,229.25367129966617,0.9989507184363902,1,10,231.25591761572286,44,230.25547791272402,0.22727272727272727,2.220446049250313e-16,0.9999999999999998,36.04365338911715
46,1,241.69681494077668,2.0000774320214987,0,53,244.7149506015703,40,242.71321944519877,1.325,0.9498778825523341,0.0501221174476659,-2.941871054955617,1,234.0420806906186,0.8656382444314659,1,43,235.92663484066725,93,235.0598129942082,0.46236559139784944,0.0013631748683237133,0.9986368251316763,6.596574733018143,0,238.5598193150945,1.9995950628072023,0,9,241.57939615752548,7,239.578132357914,1.2857142857142858,0.7228843169102507,0.2771156830897493,-0.9588141575955175,0,233.75702773639932,1.1824047034606338,1,54,235.958546271082,80,234.77484813844785,0.675,1.6076029396572267e-13,0.9999999999998392,29.45886199673128
47,1,247.215296279639,0.9655159339308739,0,72,249.20160386757925,51,248.23410472879186,1.411764705882353,0.9801052714632649,0.01989472853673517,-3.897205186768624,1,238.42797172628343,0.964143096935004,1,15,240.39591017272323,42,239.43045270815492,0.35714285714285715,0.036601610513876115,0.9633983894861239,3.2703747799461182,0,244.08000099565834,1.3659614040516317,0,77,246.46577074751258,72,245.09812440909445,1.0694444444444444,0.6643117549560459,0.3356882450439541,-0.6825686626466877,0,238.45970419421792,1.4653586992062628,1,35,240.92808787385002,62,239.4617193993181,0.5645161290322581,1.341149413747189e-13,0.9999999999998659,29.640079191182206
48,1,251.70205068122596,0.8980257231742144,0,32,253.6209470713511,16,252.7211617473513,2.0,0.9572723470893034,0.04272765291069658,-3.1092416154008298,0,242.89644350484014,0.9164201486855745,1,28,244.8322014841251,41,243.9145598076284,0.6829268292682927,0.24064833714246747,0.7593516628575325,1.149128308150817,0,248.9667504983954,1.9656277359463274,0,78,251.95216287858784,65,249.9851709981449,1.2,0.9806138344283595,0.01938616557164055,-3.923619040425575,1,243.42990278312936,2.3002884732559323,0,58,246.74968395149335,58,244.44805069081485,1.0,0.7176215841281741,0.28237841587182594,-0.9326943168594544
49,1,256.1216056374833,1.2820710353553295,1,28,258.42398516787216,82,257.1400490505621,0.34146341463414637,0.015538590916240103,0.9844614090837599,4.148768032620335,1,247.33311881544068,1.3494320609606802,0,56,249.70155527535826,46,248.35082662524655,1.2173913043478262,0.9134997914712664,0.08650020852873366,-2.3571363228718263,0,254.45315487636253,1.1492302636615932,0,50,256.60624843928963,7,255.45495358807966,7.142857142857143,0.9999999483039302,5.169606971008737e-08,-16.777884027707188,0,249.25053412187845,1.4324991228058934,0,95,251.70256268046796,16,250.26887877006084,5.9375,1.0,1.137770372200991e-40,-91.97433318631559
50,1,260.92435810528696,1.4660034384578466,0,53,263.39475224912167,55,261.9264914332889,0.9636363636363636,0.8009752024397858,0.1990247975602142,-1.392400560520138,0,252.20235092798248,1.1820886549539864,1,45,254.40440160920843,60,253.2209401181899,0.75,0.1991636940691528,0.8008363059308472,1.3915294941994265,0,259.10656093247235,1.4657707479782403,1,38,261.575985992793,43,260.1084323353134,0.8837209302325582,0.07336769265556353,0.9266323073444365,2.5360731547562034,0,254.20376326981932,1.116042391397059,0,80,256.3391379616223,60,255.22201784420758,1.3333333333333333,0.9999999999254721,7.452791801976966e-11,-23.31984732214505
51,1,265.89453259529546,1.7161089200526476,1,3,268.6308326772414,18,266.91285195946693,0.16666666666666666,0.4280490054299497,0.5719509945700503,0.28981562618557094,0,256.9054939523339,1.1657118047587574,0,86,259.09075889596716,59,257.9236782058142,1.4576271186440677,0.9931636453282312,0.006836354671768798,-4.978640802541849,1,264.0768721140921,1.5491475379094481,1,58,266.62966329744086,58,265.07861867779866,1.0,0.28134878746434167,0.7186512125356583,0.9377810030722527,1,258.84063958749175,1.4158552116714418,1,50,261.275295347441,62,259.85833791596815,0.8064516129032258,2.8396414075704257e-06,0.9999971603585924,12.771829939057799
52,0,271.13165914453566,2.0992795671336353,0,58,274.2512282440439,58,272.1500875451602,1.0,0.8365707338378274,0.16342926616217252,-1.632930802264364,1,261.59188323887065,0.9655147488228977,1,50,263.5604759058915,62,262.59385459218174,0.8064516129032258,0.2829537727680307,0.7170462272319693,0.9298567744569792,0,269.13014764199033,1.2997022029012442,0,12,271.44966925494373,3,270.1482726363465,4.0,0.9769745622414443,0.02302543775855573,-3.7478610208276977,1,263.7766231466085,1.3333479505963624,0,12,266.12936700182036,9,264.7947011287324,1.3333333333333333,0.9989644022303261,0.0010355977696738282,-6.871740329373683
53,1,276.7525102160871,1.6659393599256873,1,88,279.438042616006,96,277.7703890874982,0.9166666666666666,0.7330498152794493,0.26695018472055065,-1.0101515934824163,0,266.0615153107792,1.4827117444947362,0,53,268.54750092467293,15,267.0635376269929,3.533333333333333,0.9985083527721995,0.0014916472278004409,-6.506381486809427,1,273.95006668614224,1.1322936122305691,1,10,276.10265220096335,44,274.9685539510101,0.22727272727272727,1.0706657141978937e-06,0.9999989293342858,13.747228869485438,1,268.63019504910335,1.3824824513867497,0,66,271.03203942999244,59,269.64823589567095,1.11864406779661,0.9998419580738404,0.00015804192615962253,-8.752492150281086
54,0,281.93884182395414,2.5171835646033287,0,60,285.4762114142068,61,282.9568455340341,0.9836065573770492,0.823930363837066,0.176069636162934,-1.5432064396297969,1,271.04834793461487,1.3654632326215506,0,6,273.41710715927184,8,272.05039909062907,0.75,0.6020423558668503,0.3979576441331497,-0.41398222357134684,1,278.6032756068744,1.0489211678504944,1,3,280.6557491617277,18,279.605120935943,0.16666666666666666,0.002891901255806517,0.9971080987441935,5.842945028299013,0,273.53382273437455,1.4653089214116335,1,38,276.01878316514194,43,274.5520966667682,0.8837209302325582,0.01974361106017397,0.980256388939826,3.9049842104262353
55,0,287.9762931917794,1.182463962584734,1,35,290.1785034779459,62,288.9941764087416,0.5645161290322581,0.2121167152146427,0.7878832847853573,1.3122132964891802,0,275.9181200955063,1.132640475872904,0,77,278.05412846431136,72,276.92011199193075,1.0694444444444444,0.8431693653956955,0.1568306346043044,-1.682001383179974,1,283.15630698762834,1.1821289509534836,0,45,285.3583418666385,40,284.1745939562097,1.125,0.8003381454494022,0.19966185455059782,-1.3884091117662332,1,278.5197435580194,1.3163650771602988,1,24,280.83895662846044,69,279.52144073927775,0.34782608695652173,0.0,1.0,inf
56,0,292.6790186371654,1.5828007911331952,0,51,295.26594267832115,7,293.681021200493,7.285714285714286,0.997829308410608,0.0021706915893919296,-6.130536406461142,1,280.55513665964827,0.882452426943928,1,15,282.4570201514289,56,281.57307044416666,0.26785714285714285,0.004726556826334938,0.9952734431736651,5.349820522931432,1,287.8594306539744,0.9329352700151503,1,15,289.8123212349601,42,288.87766033923253,0.35714285714285715,1.6663102773151195e-05,0.9999833368972268,11.002297034439229,0,283.33962665172294,1.5497116846963763,0,58,285.90893453685567,58,284.3578745094128,1.0,0.7176215841281741,0.28237841587182594,-0.9326943168594544
57,0,297.7661816896871,1.1499571753665805,0,41,299.9357291399501,22,298.78396140085533,1.8636363636363635,0.9701196178259852,0.029880382174014796,-3.480217230763018,1,284.9576613348909,1.0156341358087957,1,53,286.99278776999563,55,285.975875612814,0.9636363636363636,0.6376335922267518,0.3623664077732482,-0.5651079354227567,0,292.31197871733457,1.3160241395235062,1,7,294.6484598950483,54,293.3307476602495,0.12962962962962962,5.695401927852117e-09,0.9999999943045981,18.983606661275545,0,288.41016120044515,1.0821473612450063,1,59,290.4955409485847,65,289.41197018371895,0.9076923076923077,0.0020634099964290664,0.9979365900035709,6.181329784910463
58,0,302.4363849409856,2.099369640927762,0,53,305.55537251057103,57,303.4542701328173,0.9298245614035088,0.7659898618449276,0.2340101381550724,-1.1858044945954072,1,289.49403102649376,0.8982738214544952,1,17,291.395861975383,82,290.49617818184197,0.2073170731707317,0.00013526306518796272,0.999864736934812,8.908153772408443,0,297.1484326357022,1.4322261363267899,1,35,299.5844999477267,62,298.15060191461816,0.5645161290322581,1.0719371480782947e-05,0.9999892806285192,11.443447315135499,1,292.99610193492845,1.2169417082332075,0,41,295.23230325151235,7,294.0142016452737,5.857142857142857,1.0,6.755061434483666e-19,-41.838824700847866
59,1,308.0564048043452,1.699290786869824,0,46,310.7761380118318,36,309.0746040698141,1.2777777777777777,0.9298553246929101,0.07014467530708987,-2.584469109921227,1,293.89726404612884,1.0474993442185223,0,69,295.94886372610927,61,294.9001677427441,1.1311475409836065,0.8910851275525109,0.10891487244748908,-2.101873374112459,1,302.08523515611887,1.3491164073348045,0,74,304.4379292335361,60,303.0871397438459,1.2333333333333334,0.9881057846315506,0.011894215368449318,-4.419737583042249,0,297.7329961885698,1.949111824389547,0,60,300.6851713140495,40,298.7347597396001,1.5,0.9999999999738428,2.6157236916057548e-11,-24.366895217366704
60,1,320.2993079321459,1.7812307411804795,0,50,323.1002273177728,62,321.31734759313986,0.8064516129032258,0.5839621009288887,0.41603789907111133,-0.3390597254047874,1,305.45565205579624,0.8487391243688762,1,26,307.3232051599771,84,306.4731338908896,0.30952380952380953,0.00039371402921539733,0.9996062859707846,7.839491934816157,1,313.9612488821149,0.8991322885267437,1,43,315.87928680470213,97,314.97842256957665,0.44329896907216493,1.481350597742903e-10,0.9999999998518649,22.63289669210904,1,310.19197070552036,1.0654445854015648,0,62,312.27608467871323,43,311.2093790592626,1.441860465116279,0.9999999999057665,9.423352146658293e-11,-23.08524514334308
61,1,325.60162820341066,1.3667084639891982,0,12,327.98773573245853,9,326.6191949765198,1.3333333333333333,0.8362559904052069,0.16374400959479302,-1.6306304836120968,1,309.8242216510698,0.9492212561890483,0,72,311.77661880105734,51,310.8260677703656,1.411764705882353,0.9827481517398822,0.01725184826011781,-4.042433600346196,1,318.37948828563094,0.7992798835039139,1,42,320.19898421969265,67,319.3976887362078,0.6268656716417911,2.0768072869326026e-05,0.9999792319271307,10.782072940429192,1,314.7772429971956,1.3158546588383615,0,46,317.11278551025316,40,315.79560976848006,1.15,0.9998200397810648,0.000179960218935206,-8.622594761001274
62,1,330.4878380531445,4.7359164780937135,0,58,336.24290431290865,6,331.50595514616,9.666666666666666,0.9990929708387731,0.0009070291612268644,-7.00442851630736,1,314.2771450220607,1.1998138474300504,0,41,316.47996607236564,7,315.2789433388971,5.857142857142857,0.9971953525421698,0.0028046474578301223,-5.873668843538486,1,322.69922836730257,1.3489449508488178,0,97,325.05220293812454,61,323.7009433261119,1.5901639344262295,0.9999974666398049,2.5333601950448765e-06,-12.88596146272572,0,319.6140927663073,1.4489869847893715,1,60,322.06570453569293,61,320.6159207127057,0.9836065573770492,0.4136356701334377,0.5863643298665623,0.34895575716417665
63,0,338.7438038662076,1.2661129496991634,0,7,341.029266893398,54,339.7614800715819,0.12962962962962962,0.027432652065919605,0.9725673479340804,3.568205340325662,0,318.9806633545086,1.1482268092222512,0,24,321.1486238450743,90,319.99921264406294,0.26666666666666666,0.00011924900374582492,0.9998807509962542,9.034177526448953,0,327.55278209690005,1.3158242390491068,0,28,329.8885924615897,18,328.5706542520784,1.5555555555555556,0.9781792008912451,0.021820799108754924,-3.8028292827446593,0,324.5669750510715,1.5989911728538573,0,87,327.1694791042246,85,325.5691569717601,1.0235294117647058,0.8542542795036097,0.14574572049639037,-1.7683654377910052
64,0,343.5296042752452,2.3998773731291294,0,71,346.93346425611526,64,344.53182135662064,1.109375,0.9201396442995718,0.07986035570042811,-2.4442458901316106,1,323.6505422606133,1.4318401613272727,0,54,326.085848685354,31,324.6528150453232,1.7419354838709677,0.9863681318482042,0.013631868151795894,-4.281619345717116,1,332.3892624848522,1.4825635966844857,0,32,334.8753452831879,16,333.3908747276291,2.0,0.9978962548263333,0.002103745173666741,-6.161930145465118,1,329.6706038424745,1.3174906051717699,1,4,331.99068407155573,22,330.6726704053581,0.18181818181818182,2.7057773022143294e-08,0.999999972942227,17.425291488310055
65,1,349.4336305768229,1.5158431227318943,1,19,351.9700567619875,37,350.4523777915165,0.5135135135135135,0.3796296744323855,0.6203703255676145,0.49112036245027946,0,328.58741154614836,1.4496542429551482,0,78,331.05599670670927,34,329.6049455292523,2.2941176470588234,0.9994349090052771,0.0005650909947229148,-7.477958536459669,1,337.37639456475154,0.9129926012828946,1,54,339.31241960497573,78,338.39661693619564,0.6923076923076923,2.3965420284377537e-05,0.9999760345797156,10.638874622374525,0,334.4923500427976,1.1330718821845949,0,62,336.6429772414267,17,335.5086182509549,3.6470588235294117,1.0,4.8366372271647556e-24,-53.68582254038132
66,1,354.47074732836336,1.7492663720622659,1,52,357.2401262456551,68,355.4890607665293,0.7647058823529411,0.48486494116452095,0.515135058835479,0.060558736116876476,1,333.5572454938665,1.5321935038082302,0,15,336.1091343588196,19,334.57548940135166,0.7894736842105263,0.5363998687391884,0.4636001312608115,-0.14585751210121953,0,341.8120138775557,1.1827081101946533,0,62,344.014042831026,17,342.83020524168387,3.6470588235294117,0.9999999702063592,2.9793640804346953e-08,-17.328970832240824,0,339.1438017329201,1.2655563089065254,1,37,341.4127796632238,52,340.14572212379426,0.7115384615384616,1.642157335668415e-07,0.9999998357842664,15.62208466077264
67,1,359.74117947742343,1.4483426408842206,0,58,362.21066498197615,58,360.7601819015108,1.0,0.8365707338378274,0.16342926616217252,-1.632930802264364,1,338.610058800783,1.533167328685522,0,97,341.1626121578738,61,339.62816601712257,1.5901639344262295,0.9982576857711817,0.0017423142288183072,-6.350797199058436,0,346.5176129951142,1.3478932990692556,1,56,348.88416620064527,59,347.5346262883395,0.9491525423728814,0.10742367484407134,0.8925763251559287,2.117331434432478,1,343.91386845102534,0.981617821380496,1,25,345.9154779287055,37,344.9324742341414,0.6756756756756757,1.051160595999523e-05,0.99998948839404,11.463020070043138
68,0,364.7107112039812,1.5485814157873392,0,43,367.2630532034673,7,365.712759594433,6.142857142857143,0.9947791340692301,0.005220865930769896,-5.249857461451027,0,343.66340425470844,1.116075576748699,0,62,345.7988836374134,16,344.68158218683675,3.875,0.9995579189589819,0.000442081041018084,-7.723575163185967,0,351.3851435808465,1.2325422638095915,1,24,353.63730851374567,90,352.40302126668394,0.26666666666666666,1.6864287744056128e-12,0.9999999999983136,27.108407974085598,1,348.416804542765,1.0161129492335021,1,55,350.4523971499875,95,349.4346972410567,0.5789473684210527,0.0,1.0,inf
69,1,369.76379394251853,1.9828859665431082,0,15,372.7507332325913,19,370.7655748766847,0.7894736842105263,0.7166500131206253,0.28334998687937474,-0.9279047583672376,1,348.30222940724343,1.815013574436307,0,58,351.13529172865674,6,349.31930393446237,9.666666666666666,0.9998162782497474,0.00018372175025261557,-8.601904433183211,1,356.13819305505604,1.0494548953138292,1,4,358.2079457785003,22,357.1567304925993,0.18181818181818182,0.0008338123658231389,0.9991661876341769,7.088668001764257,1,352.95334608573467,0.915789236780256,1,37,354.8882534992881,54,353.97123957425356,0.6851851851851852,1.560030704617077e-08,0.999999984399693,17.975975224837466
70,0,375.2514151073992,1.4156691380776465,1,54,377.68664963170886,80,376.2698363973759,0.675,0.25351256531507393,0.7464874346849261,1.0799653954127306,0,353.63662979984656,1.4324797648005188,0,95,356.07222619932145,16,354.63890851009637,5.9375,0.9999970427132329,2.95728676708406e-06,-12.731235385443728,0,360.70801886497065,1.749134421814233,0,14,363.47709437506273,7,361.726312154904,2.0,0.9472484880778934,0.05275151192210658,-2.8879690198042582,1,357.3897013971582,1.065550856757909,1,3,359.4745071218349,18,358.40770826814696,0.16666666666666666,9.73756842825857e-07,0.9999990262431572,13.842103238736549
71,0,380.1874207900837,1.6329624503850937,1,45,382.8236413067207,92,381.18896508263424,0.4891304347826087,0.03521933362994745,0.9647806663700526,3.310305604097498,0,358.5735061960295,1.3987925364635885,1,22,360.9920885125175,31,359.5920922262594,0.7096774193548387,0.36024669116863994,0.6397533088313601,0.5742935970782872,0,365.9780500270426,1.3995980652980506,0,62,368.3975836499594,16,366.9962082062848,3.875,0.9999999801856485,1.981435150077643e-08,-17.736859318717556,1,361.9757626252249,0.882172723300755,1,42,363.8610634403303,67,362.97763679362833,0.6268656716417911,9.778844400898379e-13,0.9999999999990221,27.653384891273607
72,0,385.32419676240534,2.0832851356826723,0,56,388.4273901968263,59,386.3424145956524,0.9491525423728814,0.7874232880042841,0.2125767119957159,-1.3094630330494694,0,363.4934285590425,1.5164807508699596,1,14,366.02923094294965,57,364.51151167647913,0.24561403508771928,0.0035048392005233575,0.9964951607994766,5.65009964117848,0,370.89811303140596,0.9823004864156246,0,51,372.90046640858054,7,371.91645254381,7.285714285714286,0.9999999648525946,3.514740544203985e-08,-17.163715000148933,0,366.36217632656917,1.0154650495387614,1,22,368.39737150259316,31,367.38056403631344,0.7096774193548387,0.000419877734180063,0.9995801222658199,7.7751270322549075
73,1,390.9282656512223,1.9495645640417933,0,98,393.88162477407604,73,391.9299343880266,1.3424657534246576,0.9888692991202472,0.01113070087975276,-4.486855032879464,0,368.5305871865712,1.3656627382151783,0,87,370.9154546200298,76,369.5485592922196,1.144736842105263,0.9312049003297151,0.06879509967028488,-2.6053468226648717,0,375.4012683820911,1.9494993789121509,1,7,378.3707029237412,54,376.4193862648681,0.12962962962962962,5.695401927852117e-09,0.9999999943045981,18.983606661275545,0,370.8982212780975,1.2164992401376367,0,51,373.1340670399368,7,371.9163762968965,7.285714285714286,1.0,8.822353168690114e-24,-53.08475359825175
74,0,396.382218550425,1.5992404562421143,1,14,399.0017260205932,57,397.4004600876942,0.24561403508771928,0.04279872554445341,0.9572012744555466,3.107505362328908,1,373.41720789996907,1.6650070161558688,0,66,376.102443608921,59,374.435996201355,1.11864406779661,0.8747575401129071,0.12524245988709293,-1.9436952132947238,0,380.8712180829607,1.2491683969274163,0,71,383.1242142240517,64,381.87326726317406,1.109375,0.8362642384957154,0.1637357615042846,-1.630690719810069,1,375.6354059013538,1.016155615914613,1,88,377.670159004163,96,376.6528146499768,0.9166666666666666,4.3035601691499004e-05,0.9999569643983085,10.053439801987514
75,0,401.50189431617036,2.366039626300335,1,12,404.8886770042591,23,402.5207501729019,0.5217391304347826,0.545984195969287,0.4540158040307129,-0.18445802213898285,0,378.6039547165856,1.165633977856487,0,59,380.78859664918855,65,379.6216155141592,0.9076923076923077,0.49756832525928874,0.5024316747407113,0.009726775649773166,0,385.6246160008013,1.232447449117899,1,15,387.8774928334169,42,386.64313566079363,0.35714285714285715,1.6663102773151195e-05,0.9999833368972268,11.002297034439229,0,380.1709684836678,1.0157253947108984,1,53,382.20625175815076,57,381.189174070023,0.9298245614035088,0.02893546712849948,0.9710645328715005,3.5133248473410075
76,1,407.38896816410124,1.1659373841248453,0,16,409.5584366018884,10,408.3907901844941,1.6,0.8773608348901998,0.12263916510980019,-1.9676719231547894,0,383.2903803489171,1.1158970091491938,0,78,385.42570289224386,65,384.30846860213205,1.2,0.946519351325784,0.053480648674216015,-2.8734715341349992,0,390.3782912516035,1.949734044726938,0,68,393.34772223746404,63,391.3959978763014,1.0793650793650793,0.7070472762703022,0.2929527237296979,-0.8810862889615587,0,384.7080449387431,1.4659019079990685,0,14,387.1932076406665,7,385.72570534143597,2.0,0.9999896116655227,1.0388334477356214e-05,-11.474816677857401
77,0,412.05949892057106,1.6667622714303434,0,87,414.74569699773565,85,413.0770384343341,1.0235294117647058,0.8845605775710325,0.11543942242896751,-2.0363450879421707,0,387.9268920253962,1.2326410291716456,0,28,390.1783877252601,18,388.94442166248336,1.5555555555555556,0.9061157131773155,0.0938842868226845,-2.2671039838965186,1,395.84829507535324,1.9825422633439302,1,6,398.8347255275585,8,396.85010366374627,0.75,0.3528426525710072,0.6471573474289928,0.6065672462064603,1,389.6960947448388,1.1988949361257255,1,53,391.91318973666057,55,390.7130392976105,0.9636363636363636,0.23877009492850731,0.7612299050714927,1.1594342783380678
78,1,417.24609719449654,1.8496687016449869,1,4,420.11530481278896,22,418.2638334487565,0.18181818181818182,0.3559644890236222,0.6440355109763778,0.5929228899087676,1,392.67995374649763,1.3162607811391354,1,10,395.0150221865624,44,393.69766471674666,0.22727272727272727,0.013045575160341771,0.9869544248396582,4.326174854827239,0,401.3350170822814,1.3321829163469374,0,60,403.67137855663896,40,402.3374095703475,1.5,0.9992357672917875,0.0007642327082124382,-7.175873698392454,1,394.4142698328942,1.0656855730339885,0,72,396.4991711624898,51,395.43220598762855,1.411764705882353,0.9999999999848892,1.511079442752569e-11,-24.915611764735182
79,0,422.61612179875374,1.3323571379296482,1,37,424.9687783452682,52,423.6347011127509,0.7115384615384616,0.4852384833503802,0.5147615166496198,0.059063230612998036,1,397.51650919532403,1.3657879722304642,0,32,399.901886257343,16,398.5348376459442,2.0,0.9597343113582278,0.04026568864177213,-3.171156779315278,1,406.17188660474494,1.7494603469967842,0,12,408.9411134235561,9,407.1898591052741,1.3333333333333333,0.7859241848175036,0.21407581518249635,-1.3005301019672946,1,399.00054557900876,0.9990498786792159,0,54,401.01872825203463,31,400.0182628701441,1.7419354838709677,0.9999999999994406,5.594370193546396e-13,-28.211845439437617
80,0,434.49182026600465,2.7509825159795582,1,28,438.26121972640976,41,435.5091022006236,0.6829268292682927,0.5215993788764541,0.4784006211235459,-0.0864513188366397,0,409.4090005122125,1.2986339586786926,0,56,411.7264970433898,59,410.4266455071047,0.9491525423728814,0.6049712570483106,0.39502874295168944,-0.42622241867115873,0,418.46461598481983,1.1491970783099532,0,43,420.632327192463,7,419.48155421670526,6.142857142857143,0.9999992301483404,7.698516596471717e-07,-14.077067220614952,0,410.52716398471966,1.8309297836385667,0,87,413.37687969906256,76,411.5447023138404,1.144736842105263,0.999995717087466,4.282912533917273e-06,-12.360872998304231
81,1,440.7618111325428,1.5653418698348105,0,46,443.34694080706686,40,441.78014195291325,1.15,0.8976403576341634,0.10235964236583665,-2.1712769780717656,0,414.22726188087836,1.1663525933399796,1,15,416.41306489752606,42,415.2454184801318,0.35714285714285715,0.036601610513876115,0.9633983894861239,3.2703747799461182,0,423.1327570187859,2.8169549028389156,0,87,426.9530000127852,76,424.13441548356786,1.144736842105263,0.948305457169727,0.05169454283027294,-2.9093244411572354,0,415.8781940662302,1.1349661988206208,1,45,418.0320789362304,92,416.8963585663587,0.4891304347826087,0.0,1.0,inf
82,1,445.84841240849346,0.9654147978872061,0,54,447.8330556056462,31,446.8662663907744,1.7419354838709677,0.9816865845255273,0.018313415474472714,-3.9816382197431697,1,418.9142789193429,1.583146074321121,1,54,421.51654554111883,78,419.9319835687056,0.6923076923076923,0.06301012331681255,0.9369898766831875,2.699377077162222,0,429.4541954663582,1.8995684357360005,0,71,432.3738886937499,69,430.4720443133265,1.0289855072463767,0.3992114747951301,0.6007885252048699,0.40875171257360043,0,420.53355172276497,1.09950435673818,0,86,422.65044626034796,59,421.54946516640484,1.4576271186440677,0.999999999999973,2.696194560564695e-14,-31.244349945088857
83,0,450.33408473897725,1.5315333572216332,0,50,452.871242181398,7,451.3371480400674,7.142857142857143,0.9975773109229703,0.0024226890770297476,-6.0204515383348784,1,424.0173170948401,1.600035713519901,1,3,426.6364654544741,18,425.0352291511372,0.16666666666666666,0.17849491665306083,0.8215050833469392,1.5265780026623907,1,434.8743272111751,1.749299162067473,0,66,437.64363185688853,59,435.8925442546606,1.11864406779661,0.8508112838499866,0.14918871615001336,-1.7409782899850015,1,425.1512999869883,1.1820369018241763,0,16,427.33643179479986,10,426.15308763692155,1.6,0.9999625762125751,3.742378742483544e-05,-10.193166603833763
84,1,455.37105926824734,1.7146187503822148,1,43,458.0900584529154,97,456.3740913597867,0.44329896907216493,0.017175181200835166,0.9828248187991648,4.046965505161845,0,429.13717735372484,1.9167306665331125,0,60,432.07342520868406,40,430.155366347637,1.5,0.9792718473197749,0.02072815268022506,-3.8553164734292538,1,440.144132793881,0.915817285887897,1,17,442.0803707721643,82,441.16238578781486,0.2073170731707317,2.9589664052309672e-12,0.999999999997041,26.546181095991713,1,429.8376987548545,0.8320667683146894,1,54,431.67298961477354,78,430.8396961824037,0.6923076923076923,1.6928680679484387e-12,0.9999999999983071,27.104596943781424
85,0,460.59195869555697,1.2821295037865639,1,24,462.8936693877913,90,461.6099149985239,0.26666666666666666,0.004427460721745047,0.995572539278255,5.4154917688243245,1,434.57447409490123,1.3965825662016869,1,40,436.9932571025565,93,435.59540718141943,0.43010752688172044,0.0008650856561673859,0.9991349143438326,7.051816571405322,1,444.5803853897378,1.382870796136558,1,87,446.9667935599573,89,445.58218370657414,0.9775280898876404,0.08369071749854884,0.9163092825014512,2.3932258830402997,1,434.1741506983526,1.081898472737521,0,46,436.27558453194797,36,435.1924309511669,1.2777777777777777,0.9999983756089054,1.6243910946326508e-06,-13.330375899007159
86,0,465.39477516291663,1.165891162585467,0,53,467.58084326516837,15,466.41306055150926,3.533333333333333,0.9960272729997159,0.003972727000284063,-5.5243218790147495,1,439.49497996270657,1.3320256820879877,0,74,441.846185056027,60,440.51288648787886,1.2333333333333334,0.9529854097890003,0.047014590210999775,-3.0091416102089066,1,449.4671570160426,0.9653322300873697,1,15,451.4527392722666,19,450.48577425582334,0.7894736842105263,0.165086045460219,0.834913954539781,1.620861845474799,0,438.7771315900609,1.3495960105210543,0,68,441.1459800982848,63,439.7951100165956,1.0793650793650793,0.998155860735292,0.0018441392647079939,-6.293896791755984
87,1,470.0812608441338,1.4338040091097355,1,55,472.53448525164276,95,471.0991037650965,0.5789473684210527,0.0745126867064293,0.9254873132935707,2.5193510217219446,1,444.3473200658336,1.083345185033977,1,28,446.43402682291344,82,445.34925270313397,0.34146341463414637,0.0007175617741451701,0.9992824382258548,7.238933698322185,0,453.9539291956462,1.5824231132864952,1,45,456.55651384126395,60,454.972066831775,0.75,0.0011471113255431264,0.9988528886744569,6.769360617768475,0,443.64685555314645,1.015301494859159,1,6,445.68191245757043,26,444.66528908954933,0.23076923076923078,2.314928915225778e-09,0.9999999976850711,19.8838868537307
88,0,475.0347803616896,1.8658405155874789,0,40,477.92180166672915,15,476.0529575040564,2.6666666666666665,0.9835883915799576,0.01641160842004242,-4.093218593373311,1,448.9335436639376,1.2159267971292138,0,98,451.15256418148056,73,449.93527205474675,1.3424657534246576,0.9911650218916244,0.008834978108375581,-4.720162413104791,0,459.0569318155758,1.8824682291597128,1,60,461.94314798666164,61,460.0589043539949,0.9836065573770492,0.19944215961149003,0.80055784038851,1.3897845176189563,0,448.1836850955151,1.26663996046409,0,9,450.46977745415643,7,449.20179784251377,1.2857142857142858,0.9971336696050026,0.0028663303949973996,-5.851852229155462
89,0,480.42172779049724,1.2490542246960104,0,12,482.69080369593576,3,481.44000725308433,4.0,0.904686643578635,0.09531335642136492,-2.2504186813862885,1,453.65364032704383,1.165651360526681,0,45,455.83918813429773,40,454.67230971483514,1.125,0.8290780501090568,0.17092194989094325,-1.5791072814939082,0,464.44432961335406,1.232602312695235,0,95,466.69649770716205,16,465.462221916765,5.9375,0.9999999999999415,5.852739794937731e-14,-30.46928140929524,0,452.9698134046048,1.048688477370888,0,28,455.0383205018006,18,453.98821059567854,1.5555555555555556,0.9999993669520313,6.330479686884532e-07,-14.272719004706651
90,0,485.1911793984473,1.415911310352385,0,80,487.6109168725088,60,486.19314640620723,1.3333333333333333,0.9791269373504503,0.020873062649549697,-3.848201835117452,0,458.34027297142893,2.3837308436632156,0,80,461.74360238574445,60,459.35854571824893,1.3333333333333333,0.9805377659000615,0.019462234099938577,-3.919625286983045,1,469.19669760763645,1.6329154381528497,0,56,471.8338362458162,46,470.19864525739104,1.2173913043478262,0.9602742332555186,0.039725766744481396,-3.1852188897650575,0,457.539659362752,1.3830774128437042,1,55,459.94211292732507,60,458.55780964065343,0.9166666666666666,0.008203354617703607,0.9917966453822964,4.794974921364631
91,1,490.11158373532817,1.615253850352019,0,94,492.747441586107,46,491.13002793863416,2.0434782608695654,0.9989262915007411,0.0010737084992589615,-6.83556245035827,1,464.24412860674784,1.532110936474055,0,62,466.79630547063425,43,465.2629690556787,1.441860465116279,0.9761821876070435,0.023817812392956564,-3.713215515999965,1,474.33403575140983,1.1495949043892324,0,58,476.50339515227824,6,475.35190909169614,9.666666666666666,0.9999999984303611,1.5696388195602597e-09,-20.272420293717904,1,462.4428801354952,1.366313403006643,0,14,464.8284867275506,8,463.46086646290496,1.75,0.9999662963729079,3.3703627092127885e-05,-10.29787139335593
92,1,495.24772919062525,1.331832102034241,1,15,497.58370469044894,42,496.25005807355046,0.35714285714285715,0.1903172635557835,0.8096827364442165,1.4479499997671634,0,469.29720186349005,1.9156015827320516,1,14,472.21707642357796,7,470.3001008196734,2.0,0.8552631951496986,0.14473680485030138,-1.776492298054864,0,479.0039352006279,1.5159019869752228,1,55,481.53965620230883,60,480.0221577747725,0.9166666666666666,0.05160997379164389,0.9483900262083561,2.9110508933509647,0,467.3294005030766,1.315811201930046,0,53,469.664643955417,15,468.3475705338642,3.533333333333333,1.0,1.1426210135806446e-20,-45.91837710172076
93,1,500.08422814588994,1.2809842228889465,0,62,502.36981996288523,43,501.0872507560998,1.441860465116279,0.9739854601592396,0.026014539840760423,-3.622740769204902,0,474.71775750862435,3.367381647694856,0,38,479.1043967898004,43,475.73580941651016,0.8837209302325582,0.5178126607557199,0.4821873392442801,-0.07128080890341255,1,484.04017057130113,1.049147933255881,1,15,486.09241499053314,56,485.0421280977316,0.26785714285714285,5.5176102686793627e-08,0.9999999448238973,16.712735844565884,1,472.16620444552973,0.8328244951553643,1,26,474.0181862283498,84,473.1840090453625,0.30952380952380953,0.0,1.0,inf
94,0,504.87129788519815,1.1160408114083111,0,95,507.00688986014575,16,505.88902979390696,5.9375,0.9999565817946413,4.341820535869296e-05,-10.044588307355491,1,481.6055819718167,2.3834112393669784,0,75,484.9924448574893,70,482.60766038671136,1.0714285714285714,0.8423171012629462,0.15768289873705374,-1.6755705018245959,0,488.59399839444086,1.3986621662043035,0,40,491.0122911310755,15,489.61246669618413,2.6666666666666665,0.999935993788187,6.400621181302052e-05,-9.656466411475835,1,476.51966454600915,1.3823753902688622,1,15,478.92140226019546,19,477.5375256394036,0.7894736842105263,0.17888297079486493,0.8211170292051351,1.5239338464198613
95,0,509.507630599197,1.1821498894132674,0,62,511.70976700866595,16,510.5258417162113,3.875,0.9983606056412961,0.0016393943587038893,-6.411787659188765,0,487.49330411478877,2.3323780759237707,0,40,490.82890667719766,15,488.4952727025375,2.6666666666666665,0.9893729303654704,0.010627069634529673,-4.533666853798795,0,493.5130705861375,2.1660061250440776,0,96,496.68293803557754,89,494.51527542062104,1.0786516853932584,0.7463525696832958,0.25364743031670417,-1.0792528689354342,0,481.422135097906,1.4988673604093492,0,96,483.9246160797775,89,482.4244201295078,1.0786516853932584,0.9992403708659108,0.0007596291340892579,-7.181920307448607
96,1,514.2109312531538,1.6994914775714278,0,87,516.929663376417,89,515.2290329383686,0.9775280898876404,0.8352295021062368,0.16477049789376322,-1.623152956092709,0,493.3301392667927,1.6833208492025733,1,37,496.0328307370655,52,494.34824174270034,0.7115384615384616,0.19509258468667534,0.8049074153133247,1.4172530196209443,1,499.18351956503466,1.3661668356508017,1,53,501.5531838736497,55,500.18529852386564,0.9636363636363636,0.16202054899779472,0.8379794510022053,1.6432704058507923,1,486.4255231395364,1.315814362373203,1,19,488.7611818006262,37,487.4440009226091,0.5135135135135135,1.2338055355165523e-08,0.9999999876619446,18.210577407271927
97,1,519.4306956701912,1.6495186579413712,0,41,522.0837848875672,7,520.4325042585842,5.857142857142857,0.9935016519428803,0.006498348057119675,-5.029687725198498,0,498.5339317712933,1.4488400225527585,0,71,500.98622264992446,64,499.5360915688798,1.109375,0.8765083205894444,0.12349167941055565,-1.9597724166831703,0,504.05387483537197,1.3821932673454285,1,60,506.4566855346784,70,505.07231666799635,0.8571428571428571,0.006300656245478042,0.993699343754522,5.060780895909577,0,491.26201695902273,1.332467359956354,0,50,493.5974460900761,7,492.2637485107407,7.142857142857143,1.0,2.716370000499899e-23,-51.96016070851137
98,0,524.5842964914627,1.747264204081148,0,62,527.3544995053671,17,525.6055456260219,3.6470588235294117,0.9981825279952471,0.0018174720047529575,-6.308489626226399,0,503.4869744507596,1.7995635368861258,0,51,506.3060460896231,7,504.5052582593635,7.285714285714286,0.999383688561121,0.0006163114388789397,-7.391141638162049,1,508.9573555579409,0.9826643373817205,1,52,510.9594043432735,68,509.97498040506616,0.7647058823529411,0.000654063589179632,0.9993459364108204,7.3316517024901176,0,496.0984787787311,1.2328306580893695,0,12,498.3509648963809,3,497.11687557492405,4.0,0.9999991112171772,8.887828227330287e-07,-13.933412036382508
99,1,529.8541791108437,1.632755043450743,0,42,532.5074117351323,39,530.8728832639754,1.0769230769230769,0.8622655272758107,0.13773447272418923,-1.834235538529073,1,508.80713132116944,1.7166857086122036,0,33,511.543653822504,25,509.82571735139936,1.32,0.8793317829286482,0.12066821707135178,-1.9861175097156338,1,513.4600459216163,1.2157517848536372,0,46,515.6955341538414,36,514.4780986197293,1.2777777777777777,0.967885123161135,0.032114876838865096,-3.4057940301149157,0,500.8521192641929,0.982510264031589,1,45,502.8535169889219,60,501.86973778996617,0.75,1.0802491667849523e-07,0.9999998919750833,16.04090381842066
