,self_acceptUp,self_cue_times,self_decision_times,self_decisions,self_punishment_values,self_response_times,self_reward_values,self_trial_times,self_punishment_reward_ratio,self_prob_reject,self_prob_accept,self_SV,harm_other_acceptUp,harm_other_cue_times,harm_other_decision_times,harm_other_decisions,harm_other_punishment_values,harm_other_response_times,harm_other_reward_values,harm_other_trial_times,harm_other_punishment_reward_ratio,harm_other_prob_reject,harm_other_prob_accept,harm_other_SV,harm_self_acceptUp,harm_self_cue_times,harm_self_decision_times,harm_self_decisions,harm_self_punishment_values,harm_self_response_times,harm_self_reward_values,harm_self_trial_times,harm_self_punishment_reward_ratio,harm_self_prob_reject,harm_self_prob_accept,harm_self_SV,other_acceptUp,other_cue_times,other_decision_times,other_decisions,other_punishment_values,other_response_times,other_reward_values,other_trial_times,other_punishment_reward_ratio,other_prob_reject,other_prob_accept,other_SV
0,0,0.004115743562579155,2.3086578361690044,1,53,3.3375782617367804,57,1.0270411213859916,0.9298245614035088,0.0288688651264698,0.9711311348735302,3.515697827419866,0,0.0028416719287633896,1.8914862819947302,1,7,2.9205501140095294,54,1.0272690709680319,0.12962962962962962,3.5646012212731115e-05,0.9999643539877873,10.241837630103582,0,0.003724633250385523,1.92742575192824,1,54,2.952829346060753,80,1.0240923874080181,0.675,0.01224080368211189,0.9877591963178881,4.390664004386183,0,0.004042262211441994,2.6923329760320485,1,54,3.720050046220422,80,1.0264311470091343,0.675,0.006008255279097985,0.993991744720902,5.108594498089985
1,1,5.838079988956451,0.9800312574952841,1,14,7.823293258436024,8,6.8413427961058915,1.75,0.130854435207166,0.869145564792834,1.8934250958731949,1,5.421959295868874,1.8988739186897874,1,46,8.340517908800393,36,6.439911648631096,1.2777777777777777,0.31336697941078073,0.6866330205892193,0.7844250108438674,0,5.453692949377,0.8654474299401045,1,9,7.322732272092253,7,6.456561880651861,1.2857142857142858,0.04971971238500672,0.9502802876149933,2.9503554987420677,1,6.221258932258934,1.6656837556511164,1,25,8.889605002477765,37,7.223385149613023,0.6756756756756757,0.020277967052326207,0.9797220329476738,3.8777339618518307
2,0,10.324215330649167,0.8317467691376805,1,56,12.176252421922982,59,11.342413805890828,0.9491525423728814,0.03163337969131952,0.9683666203086805,3.421397873135284,1,10.841492128558457,1.2486895830370486,1,6,13.110304133500904,8,11.85970759158954,0.75,0.005066793222577304,0.9949332067774227,5.279967489026008,0,9.823687924072146,1.3662940454669297,1,56,12.242541252169758,59,10.87495377799496,0.9491525423728814,0.18310934999904083,0.8168906500009592,1.4954217272108437,1,11.391157986596227,1.2835588338784873,1,16,13.693806948140264,10,12.408336414955556,1.6,0.1341810058198024,0.8658189941801976,1.8644861949120495
3,0,14.677047679200768,1.5327560701407492,1,37,17.22980291210115,52,15.695015834178776,0.7115384615384616,0.008833296291206438,0.9911667037087936,4.720354486983839,1,15.611154304351658,1.0815227697603405,1,14,17.713098951615393,57,16.63060946809128,0.24561403508771928,9.684615015015385e-05,0.9999031538498498,9.242290068705044,1,14.743525743484497,1.1822296916507185,1,45,16.94529237644747,40,15.761752663180232,1.125,0.2684894150771904,0.7315105849228096,1.0023001997760252,1,16.197086742613465,1.315836485940963,1,50,18.53015380492434,62,17.212727199308574,0.8064516129032258,0.029396184983796925,0.9706038150162031,3.4970534640696296
4,0,19.730538515374064,0.8813569233752787,1,45,21.616146687883884,42,20.732908090110868,1.0714285714285714,0.07108727000717052,0.9289127299928295,2.570106517394095,1,20.214041171595454,2.466589708812535,0,56,23.684611512813717,46,21.216001858003438,1.2173913043478262,0.500854245664851,0.4991457543351489,-0.0034169859840688503,0,19.44661187939346,1.3489785306155682,0,60,21.815288536716253,40,20.46500630490482,1.5,0.8157332032097355,0.18426679679026453,-1.4877026546961152,0,21.030861359089613,1.3326704213395715,1,7,23.38278072234243,54,22.04889074806124,0.12962962962962962,0.0002404041392052303,0.9997595958607948,8.33294870441873
5,1,24.116565452422947,1.0494679319672287,1,55,26.186307904310524,95,25.134948816150427,0.5789473684210527,0.00033757154108471354,0.9996624284589153,7.993395467999396,0,26.185077289585024,1.766762429382652,0,51,28.97177646169439,7,27.20293443230912,7.285714285714286,0.9682620727609581,0.03173792723904193,-3.4179903783695877,0,24.31660606432706,0.9990731873549521,0,71,26.334836539346725,64,25.334511404391378,1.109375,0.5949062811588919,0.4050937188411081,-0.3842854375996159,1,25.88421874353662,2.7173225465230644,0,74,29.621008305810392,60,26.902041911147535,1.2333333333333334,0.4935949066185943,0.5064050933814057,0.025621775105614752
6,1,28.686453681904823,1.0155025804415345,1,87,30.705855907406658,89,29.688126764260232,0.9775280898876404,0.026526018662097695,0.9734739813379023,3.602745009917707,0,31.471617647446692,1.5995521587319672,1,45,34.07473206985742,42,32.47324727335945,1.0714285714285714,0.16147270729516927,0.8385272927048307,1.6473109968677324,1,28.83642547391355,1.282481108326465,1,16,31.13771305605769,10,29.854013975709677,1.6,0.10390852268695094,0.8960914773130491,2.1545315804520775,0,32.12140218121931,1.4992485945113003,0,87,34.6240526442416,76,33.12315269559622,1.144736842105263,0.4536211947800408,0.5463788052199592,0.18605004061576386
7,1,33.206101635005325,0.8489386294968426,1,25,35.07486560055986,37,34.224094283767045,0.6756756756756757,0.014333490130138737,0.9856665098698613,4.230719305829823,0,36.57532861130312,1.3329359022900462,0,80,38.92804797273129,60,37.59310239646584,1.3333333333333333,0.9532196977403078,0.04678030225969217,-3.0143831874297895,0,33.63934900285676,1.4154684473760426,0,51,36.07456258870661,7,34.657829156611115,7.285714285714286,0.9823922668011507,0.017607733198849337,-4.021652493779925,1,37.12511496245861,2.2158754388801754,0,72,40.36087657650933,51,38.14326089480892,1.411764705882353,0.6857121703387703,0.3142878296612297,-0.780148741904565
8,1,37.5753037231043,0.8484965567477047,1,58,39.42763394955546,58,38.57731616264209,1.0,0.04437937188361263,0.9556206281163874,3.0695862375147818,1,41.42834900924936,1.2495670132339,1,26,43.6977923209779,84,42.446328226011246,0.30952380952380953,4.6449528813496954e-05,0.9999535504711865,9.9770977860988,0,38.57603339990601,1.930370930582285,1,6,41.52754403324798,26,39.59622890781611,0.23076923076923078,0.003117878614478431,0.9968821213855216,5.767479690350919,1,42.86142689641565,1.316824137698859,1,14,45.18200806248933,57,43.86309207743034,0.24561403508771928,0.00043119651432244055,0.9995688034856776,7.748515332563697
9,1,41.92845409596339,1.4160112608224154,0,41,44.36525543080643,7,42.94685760745779,5.857142857142857,0.7871971114920325,0.21280288850796747,-1.3081123451958383,0,46.19838333223015,1.3985302159562707,1,68,48.6165314768441,63,47.216723239049315,1.0793650793650793,0.5959828773823084,0.4040171226176916,-0.3887546776482563,1,44.029358942527324,1.5154500375501812,0,66,46.54826023103669,59,45.03147725854069,1.11864406779661,0.5410524214213983,0.45894757857860163,-0.16458017577058384,0,47.681675816420466,1.2823973554186523,1,38,49.968079878017306,43,48.68381823087111,0.8837209302325582,0.055015417616507856,0.9449845823834921,2.8435551461723296
10,1,46.86515785055235,1.5661553000099957,1,88,49.45127636240795,96,47.88336462248117,0.9166666666666666,0.012672206356585614,0.9873277936434144,4.355590975992095,0,51.118275274988264,1.5325261447578669,1,59,53.67092384165153,65,52.13660965114832,0.9076923076923077,0.17473080906228988,0.8252691909377101,1.552463069461426,0,49.049600277561694,1.4321621358394623,0,95,51.485021269880235,16,50.051577161531895,5.9375,0.9999638258144673,3.6174185532651054e-05,-10.227128625507177,1,52.46865469170734,1.2659908756613731,1,54,54.754953667055815,78,53.48667262401432,0.6923076923076923,0.007617404024870544,0.9923825959751295,4.869673081852069
11,0,51.95313038304448,1.2307874038815498,1,77,54.187327951192856,72,52.955074477009475,1.0694444444444444,0.06676583690010085,0.9332341630998991,2.6374646219585776,0,56.17159544490278,1.04903494566679,0,62,58.22446169005707,17,57.17319188546389,3.6470588235294117,0.9878311348697946,0.012168865130205386,-4.396631115786187,0,53.986360921058804,2.0980157675221562,0,78,57.10510315839201,65,55.00605193618685,1.2,0.8060003202818973,0.19399967971810275,-1.4242276317542797,0,57.254799988586456,1.3991947080940008,0,62,59.65814323024824,16,58.25687366258353,3.875,0.9737731390172837,0.026226860982716364,-3.614394245765814
12,0,56.68831915874034,0.9995294823311269,0,62,58.707637631334364,17,57.7062584743835,3.6470588235294117,0.9215464396648896,0.07845356033511044,-2.463546309926404,1,60.7247615410015,1.615970490500331,0,58,63.360511935316026,6,61.742807522881776,9.666666666666666,0.9923517145995442,0.007648285400455777,-4.865596103396083,0,59.6065494758077,3.334187059663236,1,15,63.96004078583792,42,60.624684346374124,0.35714285714285715,0.0019726080258942735,0.9980273919741057,6.226424184585003,0,62.15803972398862,1.5828805933706462,0,43,64.74461571639404,7,63.15979972016066,6.142857142857143,0.8938296174464033,0.10617038255359663,-2.1304699862616854
13,1,61.2105401433073,1.1493780161254108,1,45,63.37738972296938,40,62.2262655380182,1.125,0.08928151413332708,0.9107184858666729,2.322439375024856,0,65.86112981056795,1.1651922999881208,0,78,68.03031775495037,34,66.86323943501338,2.2941176470588234,0.9961088964141708,0.003891103585829205,-5.545163769805017,0,66.46112009184435,1.0980939897708595,0,59,68.57932623149827,65,67.48035481199622,0.9076923076923077,0.15061623610197206,0.8493837638980279,1.7297759839104323,1,67.24539714679122,1.8667361182160676,0,53,70.13148136716336,55,68.26296708034351,0.9636363636363636,0.0947675489119656,0.9052324510880344,2.25676472314611
14,1,65.87792068487033,1.3324009901843965,1,46,68.23003362771124,36,66.89589041983709,1.2777777777777777,0.15275998538799385,0.8472400146120062,1.7131160580684355,0,70.5316969123669,1.0827142731286585,1,7,72.63324373355135,54,71.54883978515863,0.12962962962962962,3.5646012212731115e-05,0.9999643539877873,10.241837630103582,0,71.08127427659929,1.3655173555016518,1,38,73.46646170923486,43,72.09961971454322,0.8837209302325582,0.07374892313519621,0.9262510768648038,2.5304789456600325,1,72.63165795942768,2.250106666237116,1,43,75.90221968851984,97,73.65011677984148,0.44329896907216493,0.00018024851701536893,0.9998197514829846,8.620993744445924
15,1,70.7307751569897,0.7652631737291813,1,37,72.50020938226953,54,71.73278127564117,0.6851851851851852,0.006908833701902206,0.9930911662980978,4.968021629353066,1,75.13427523709834,1.3159190537407994,1,4,77.4702100455761,22,76.15236862655729,0.18181818181818182,0.0007241637848434124,0.9992758362151566,7.22976854288543,1,75.9675236325711,0.9156296318396926,1,28,77.90265504550189,82,76.9857872929424,0.34146341463414637,0.00012961826443813607,0.9998703817355619,8.950787228003485,0,78.40271944040433,2.2501682960428298,0,78,81.67238596174866,34,79.42045253422111,2.2941176470588234,0.9738932640256356,0.02610673597436441,-3.619108348108493
16,0,75.00063920859247,0.5982800633646548,0,14,76.6184732010588,57,76.01899689342827,0.24561403508771928,0.00034858838895446276,0.9996514116110455,7.9612700839194614,0,79.97057745233178,1.6662633093073964,0,53,82.6402331488207,15,80.97230900358409,3.533333333333333,0.9480177805904761,0.05198221940952386,-2.9034715322999727,0,80.40370511682704,1.0321445162408054,1,7,82.45564968511462,54,81.42223109770566,0.12962962962962962,0.00012105610700396952,0.999878943892996,9.019135362157922,1,84.17298092320561,2.0498772151768208,0,37,87.24282253533602,54,85.19118532445282,0.6851851851851852,0.01348885460709981,0.9865111453929002,4.292310863511189
17,1,79.1196615435183,1.09931749291718,1,42,81.23976358026266,67,80.1382669317536,0.6268656716417911,0.0024531825676198382,0.9975468174323802,6.00791289366341,1,85.1408759127371,1.332829630933702,1,3,87.49351507704705,18,86.15901394374669,0.16666666666666666,0.0009364204543147459,0.9990635795456853,6.972509119850722,0,84.95703239785507,0.9992470140568912,0,62,86.97555047739297,17,85.97496262704954,3.6470588235294117,0.9903113396032119,0.009688660396788108,-4.627063207736132,0,89.74349650926888,2.5999045530334115,1,53,93.36338165728375,57,90.76194150233641,0.9298245614035088,0.0761611515568299,0.9238388484431701,2.4956861393840404
18,1,83.74044980062172,1.0989726050756872,1,33,85.8587922360748,25,84.7579624503851,1.32,0.13790455265620738,0.8620954473437926,1.8328041938708517,0,89.99714766116813,1.5486086746677756,1,35,92.56336577562615,62,91.01301685767248,0.5645161290322581,0.003031718845112774,0.9969682811548872,5.795589220871709,1,89.47661240119487,1.2495097294449806,1,40,91.7293130364269,93,90.47849881649017,0.43010752688172044,0.00024809877836518,0.9997519012216348,8.30143546168007,0,95.86424367967993,1.649827990680933,1,15,98.53385828994215,42,96.88213795842603,0.35714285714285715,0.002953175262744967,0.997046824737255,5.821916782749244
19,1,88.35910749481991,1.2994465986266732,1,17,90.66209936887026,82,89.36093544075266,0.2073170731707317,2.2205634993333057e-05,0.9999777943650067,10.715142266884992,1,95.06400379864499,1.5993593693710864,1,54,97.68325368873775,78,96.08219871856272,0.6923076923076923,0.018658003844042814,0.9813419961559572,3.9626458041810015,0,94.22996172634885,1.1992809101939201,0,87,96.44828101154417,76,95.24772405484691,1.144736842105263,0.8285774604527162,0.17142253954728384,-1.575578827181866,0,101.03418856114149,1.7832056498154998,1,9,103.83764107618481,7,102.05227562924847,1.2857142857142858,0.07951759508671474,0.9204824049132853,2.448919566766928
20,1,100.18529931409284,0.9988717064261436,1,28,102.20313551882282,82,101.20254806336015,0.34146341463414637,7.780221025610601e-05,0.9999221977897439,9.461262912484948,0,107.20659230044112,2.132695389445871,1,60,110.35892695141956,70,108.22439927048981,0.8571428571428571,0.12766798971718052,0.8723320102828195,1.9217370334021038,0,105.95512662502006,2.7002602661959827,0,40,109.67399188363925,15,106.97239631228149,2.6666666666666665,0.771918736582837,0.22808126341716295,-1.2191772970416657,1,113.36105869989842,1.3138900217600167,1,88,115.69520822865888,96,114.3795590014197,0.9166666666666666,0.08013042493123068,0.9198695750687693,2.4405762749648163
21,1,104.70346223376691,0.6990553303621709,1,10,106.42255623312667,44,105.72158367233351,0.22727272727272727,0.0011043539765162036,0.9988956460234838,6.807389787391282,1,112.85937099996954,1.9327871222048998,0,98,115.79585944674909,73,113.86116062523797,1.3424657534246576,0.9932575824845532,0.0067424175154468195,-4.992571486249412,1,112.17484165960923,1.1824505305849016,1,37,114.37687772372738,54,113.19313573976979,0.6851851851851852,0.017307953548708288,0.9826920464512917,4.039129653213864,1,118.19573168409988,1.2829468850977719,1,26,120.4984371396713,84,119.21372196264565,0.30952380952380953,8.629096915757639e-05,0.9999137090308424,9.357699315413877
22,0,108.92315791081637,0.9656036370433867,1,22,110.90922925248742,31,109.94137416407466,0.7096774193548387,0.021254875213221336,0.9787451247867787,3.8296849753759243,0,118.29630823573098,1.3661786876618862,1,37,120.68260736949742,52,119.31472873548046,0.7115384615384616,0.013468437547317635,0.9865315624526824,4.2938463306357,1,116.87840028805658,0.7788074379786849,1,6,118.67982140090317,8,117.89969643531367,0.75,0.027373754114955462,0.9726262458850445,3.5704152075688307,1,122.999070817139,1.015335864853114,1,4,125.01791363675147,22,124.00090429419652,0.18181818181818182,0.0072875775173436574,0.9927124224826563,4.914269828702694
23,0,113.41283418238163,1.2484568925574422,0,60,115.67857063887641,40,114.42826328147203,1.5,0.3514654440700762,0.6485345559299238,0.6126038917557386,0,123.18305299803615,1.5632504182867706,0,43,125.76865200512111,7,124.20369373913854,6.142857142857143,0.8689379055891036,0.13106209441089647,-1.891600453660302,1,121.18152687838301,1.3154402398504317,0,53,123.51641082530841,40,122.19962184783071,1.325,0.580713076295863,0.41928692370413695,-0.32570132260911544,0,127.51989131094888,1.3824686240404844,0,62,129.92154132155702,17,128.53680583881214,3.6470588235294117,0.9705432687900196,0.02945673120998033,-3.4949335376468484
24,1,118.17960688332096,1.0150146801024675,1,26,120.21491228090599,84,119.19815617240965,0.30952380952380953,4.835424828331103e-05,0.9999516457517167,9.936908119289077,1,128.2693188674748,2.56673919968307,1,42,131.85637564910576,67,129.28765758965164,0.6268656716417911,0.00656073204826757,0.9934392679517324,5.020070741280389,0,126.01786148827523,1.416563950944692,1,45,128.45307981502265,92,127.0355874709785,0.4891304347826087,0.0006425806913104015,0.9993574193086896,7.349375372257669,1,132.42276284983382,1.2645248053595424,1,66,134.69112369511276,59,133.42470852425322,1.11864406779661,0.2721652739409781,0.7278347260590219,0.9836644912286772
25,0,122.71578615531325,1.0821856814436615,0,51,124.80131563171744,7,123.7175105959177,7.285714285714286,0.9204152669978692,0.07958473300213077,-2.4480026673752504,1,134.35719342483208,1.5823219777084887,0,72,136.94323727022856,51,135.3592374692671,1.411764705882353,0.9238696600802332,0.07613033991976675,-2.496124130873307,1,130.95388099830598,1.9993884461000562,0,54,133.95638884417713,31,131.9558002036065,1.7419354838709677,0.830648988116089,0.16935101188391105,-1.5902337542982854,1,137.19209475442767,0.8655422446317971,1,14,139.07715971814469,8,138.21016404498369,1.75,0.13068216702951985,0.8693178329704802,1.8949406347346265
26,0,127.30212274100631,1.082328299060464,0,40,129.40441741188988,15,128.320368623361,2.6666666666666665,0.5506889555403299,0.4493110444596701,-0.2034547435009366,1,139.44404991017655,1.2154874890111387,1,43,141.679530241061,93,140.462183595635,0.46236559139784944,0.00043416568926912813,0.9995658343107309,7.741650064244459,0,136.45794261805713,0.8654991830699146,1,14,138.34339000098407,7,137.47640973469242,2.0,0.10713415103980117,0.8928658489601988,2.120354547251356,0,141.577844358515,1.5994498380459845,1,28,144.18095601536334,18,142.57970944046974,1.5555555555555556,0.23077918609561232,0.7692208139043877,1.2039167235007313
27,0,131.90503686713055,1.032131479587406,1,59,133.94080448616296,65,132.90686836931854,0.9076923076923077,0.02140628043976245,0.9785937195602376,3.8224322035891802,0,144.18011690629646,1.2994868950918317,1,28,146.49966459302232,41,145.1983947888948,0.6829268292682927,0.008335386723730687,0.9916646132762693,4.778875045969106,1,140.8442140975967,1.5832531359046698,0,72,143.44664032384753,51,141.8621585490182,1.411764705882353,0.8944528502812407,0.10554714971875932,-2.1370544210181293,1,146.68150712549686,1.048573909793049,1,3,148.75015999982134,18,147.69990431610495,0.16666666666666666,0.010240465675964039,0.989759534324036,4.571114924257058
28,1,136.4417348545976,1.5836462210863829,1,69,139.04540354711935,61,137.45970814488828,1.1311475409836065,0.100905147429041,0.899094852570959,2.1872075966712887,0,148.99998538242653,1.3824465009383857,1,45,151.38539958000183,92,150.00176947703585,0.4891304347826087,0.0007110631182404292,0.9992889368817596,7.248038042161154,0,145.94782629655674,0.8486407538875937,0,77,147.8159929299727,72,146.96607889514416,1.0694444444444444,0.59960354288718,0.40039645711282,-0.403813475929782,1,151.25138745363802,0.7981346021406353,1,6,153.06996408104897,8,152.27013822365552,0.75,0.04868639893714333,0.9513136010628567,2.9724440589766545
29,0,141.54512147372589,1.2649712236598134,0,78,143.83094045054168,34,142.56416063848883,2.2941176470588234,0.8986396485849463,0.10136035141505376,-2.1822001152749233,1,153.8868091572076,1.649040634278208,1,82,156.53978617722169,40,154.88875917717814,2.05,0.9964465321145269,0.0035534678854731126,-5.636271486724457,1,150.31727016158402,0.6486463635228574,1,10,151.9856671942398,44,151.3355867601931,0.22727272727272727,0.0006747162297241482,0.9993252837702759,7.300543411940282,0,155.5704243266955,2.1504822112619877,1,77,158.7408871324733,72,156.58861055551097,1.0694444444444444,0.25824955227972946,0.7417504477202705,1.0550864884424371
30,0,146.33120237570256,0.8656485159881413,1,55,148.20057631470263,60,147.33325234614313,0.9166666666666666,0.02510603449128712,0.9748939655087129,3.659220476537845,1,159.0400524479337,1.4500125627964735,0,74,161.4932638183236,60,160.04240306001157,1.2333333333333334,0.866410916023919,0.13358908397608102,-1.8695907438978239,0,154.48656003177166,1.1503143100999296,1,35,156.63973260717466,62,155.48828447191045,0.5645161290322581,0.004736999352357829,0.9952630006476422,5.347603137268852,0,161.24139162525535,1.4160559023730457,1,14,163.6773538510315,7,162.25954308826476,2.0,0.1448621694266633,0.8551378305733367,1.775479926615662
31,1,150.70102589391172,2.8508293903432786,0,32,154.5710896095261,16,151.7191493078135,2.0,0.3031608502560247,0.6968391497439753,0.8322910854272125,1,163.99387813778594,1.6494301646016538,1,14,166.66314351418987,8,165.01193044055253,1.75,0.022897192614926065,0.9771028073850739,3.7535775643167275,1,159.1405203579925,1.280743631068617,0,94,161.4246575613506,46,160.14306454965845,2.0434782608695654,0.9983401292599591,0.0016598707400409284,-6.399354297238949,1,166.17805073829368,1.2324636466801167,1,55,168.43027730099857,95,167.197077261284,0.5789473684210527,0.0011511785520543771,0.9988488214479456,6.7658171918441425
32,1,157.07175173144788,2.0996153689920902,1,40,160.1751754861325,93,158.07389849191532,0.43010752688172044,7.82468442207529e-05,0.9999217531557792,9.455563808898848,1,169.1633702791296,2.0494695124216378,1,15,172.23336794041097,42,170.1821854445152,0.35714285714285715,0.0006286712559242513,0.9993713287440757,7.371273214527512,0,163.92645074194297,0.8989813756197691,1,12,165.84492955263704,3,164.9446409214288,4.0,0.12302203552234359,0.8769779644776564,1.9641183761182959,0,170.93104213895276,1.3825235376134515,0,51,173.31738867983222,7,171.9329502824694,7.285714285714286,0.9611332306803612,0.03886676931963888,-3.2079734105037128
33,1,162.67590200295672,0.9325014930218458,1,3,164.62840384384617,18,163.69362245500088,0.16666666666666666,0.012301695873921381,0.9876983041260786,4.385640162116746,0,174.73439470352605,2.4825153993442655,1,60,178.23781000403687,61,175.75363139854744,0.9836065573770492,0.28626247147651207,0.7137375285234879,0.9136061652492975,0,168.34565172391012,0.8825654140673578,1,14,170.23134997021407,57,169.34755038609728,0.24561403508771928,0.0002682530697443175,0.9997317469302557,8.223311443868063,0,175.81784220971167,1.599259814247489,1,6,178.43696172954515,26,176.83591979648918,0.23076923076923078,0.0059243825612957934,0.9940756174387042,5.1227368051180475
34,0,167.12873569503427,0.8157100668177009,1,14,168.96481233043596,7,168.14706691075116,2.0,0.14559313418366837,0.8544068658163316,1.7695915246885747,0,180.73795617651194,2.683452799450606,1,28,184.44168823678046,18,181.75649084849283,1.5555555555555556,0.09952257382685326,0.9004774261731467,2.2025406051341534,1,172.7324138688855,3.2836919697001576,1,75,177.035360311158,70,173.7503464682959,1.0714285714285714,0.5783323773814333,0.4216676226185667,-0.3159313711981711,1,180.9380615791306,2.116262045688927,1,19,184.07372229453176,37,181.95585274649784,0.5135135135135135,0.00914046494691756,0.9908595350530824,4.685861530033342
35,1,171.4650880829431,2.432890233118087,1,15,174.91815802128986,42,172.4833817682229,0.35714285714285715,0.0024979657588142246,0.9975020342411858,5.989777483932298,0,186.94218443334103,2.0328737986274064,0,62,189.99537067767233,16,187.96036947658285,3.875,0.9891066069657742,0.010893393034225764,-4.508645656692055,1,179.53649966651574,0.6822138889692724,1,19,181.23819439811632,37,180.55470367288217,0.5135135135135135,0.007018742392504551,0.9929812576074954,4.952127733730724,1,186.57411814527586,1.2328322385437787,1,33,188.81024044984952,25,187.5757280178368,1.32,0.20315320406096538,0.7968467959390346,1.3667020401822219
36,0,177.41905243881047,1.2153472425416112,1,12,179.63797300634906,23,178.420805323869,0.5217391304347826,0.01836258699079718,0.9816374130092028,3.978906728078374,1,192.49560020770878,1.5493391421623528,0,41,195.06557574588805,7,193.5146085578017,5.857142857142857,0.8190616473692581,0.1809383526307419,-1.5100029724829795,1,183.7397379009053,0.7825214047916234,1,42,185.54146400047466,39,184.7576199322939,1.0769230769230769,0.2012915497114306,0.7987084502885694,1.3782416327381164,1,191.3114343234338,1.0653790053911507,0,54,193.39662325754762,31,192.3295948728919,1.7419354838709677,0.6780839274448898,0.32191607255511023,-0.7449801997393085
37,0,182.13872915273532,3.667390022892505,1,87,186.80982682155445,76,183.14049784000963,1.144736842105263,0.11994948805023453,0.8800505119497655,1.9929085845176482,0,197.56586097972468,1.9165710620582104,0,87,200.4863865999505,85,198.56758937053382,1.0235294117647058,0.8248575192211114,0.1751424807788886,-1.5496108489037344,0,188.04236868955195,0.8161572753451765,1,22,189.86157622933388,31,189.04417767282575,0.7096774193548387,0.023619670419277483,0.9763803295807225,3.7217723352422833,1,195.8978270078078,0.9661152409389615,1,15,197.88407375616953,42,196.91566518740728,0.35714285714285715,0.002953175262744967,0.997046824737255,5.821916782749244
38,1,189.3100828207098,1.0984874702990055,0,58,191.42911542765796,6,190.32876445539296,9.666666666666666,0.9667459592296374,0.03325404077036261,-3.3697594640854596,0,202.9865323775448,2.166689580306411,0,56,206.17304334277287,59,204.0045917914249,0.9491525423728814,0.18957531204215605,0.810424687957844,1.4527720457922058,1,192.36212180834264,0.965645513497293,1,12,194.34734021360055,9,193.38037282647565,1.3333333333333333,0.0631817852750639,0.9368182147249361,2.696473203712313,1,200.38409785507247,0.8154994989745319,1,17,202.21963207190856,82,201.40230462653562,0.2073170731707317,3.260640363422773e-05,0.9999673935963658,10.330969251448538
39,0,193.9300489560701,1.2834079209715128,1,24,196.2330554476939,90,194.94793849391863,0.26666666666666666,1.8312879938919835e-05,0.9999816871200611,10.907887610836786,0,208.67357509443536,1.3967204419896007,1,14,211.09305893955752,57,209.69432171201333,0.24561403508771928,9.684615015015385e-05,0.9999031538498498,9.242290068705044,1,196.8482761126943,0.7320527830161154,1,43,198.58341116039082,93,197.85010089864954,0.46236559139784944,0.00040816333310134123,0.9995918366668987,7.803434890786073,0,204.71992323175073,1.1830115169286728,0,62,206.90594432177022,17,205.7219001161866,3.6470588235294117,0.9705432687900196,0.02945673120998033,-3.4949335376468484
40,1,205.75628265179694,1.0156037164852023,1,72,207.7902460284531,51,206.7732299696654,1.411764705882353,0.35276558047626083,0.6472344195237392,0.6069047881712627,1,220.6153225908056,4.184677488170564,1,37,225.81913524353877,54,221.63258398184553,0.6851851851851852,0.010794392559544952,0.989205607440455,4.517875412447428,0,208.09013469982892,0.8653439241461456,1,60,209.97404766641557,61,209.1074359919876,0.9836065573770492,0.25435110153489415,0.7456488984651058,1.0755392418829433,0,216.4294954757206,3.8174744080752134,0,95,221.26584825851023,16,217.44644950982183,5.9375,0.9996838873856545,0.0003161126143454857,-8.059095870764175
41,1,210.29128819843754,1.6321577113121748,1,54,212.94299114774913,31,211.3094973405823,1.7419354838709677,0.4546162684540952,0.5453837315459048,0.18203594440180615,0,228.3198360814713,1.2838235250674188,0,62,230.6229713629,17,229.33807050716132,3.6470588235294117,0.9878311348697946,0.012168865130205386,-4.396631115786187,0,212.4753237129189,0.7652442106045783,1,37,214.24371537286788,52,213.4772010417655,0.7115384615384616,0.021988294883858672,0.9780117051161413,3.7950113773492054,0,223.76651630643755,1.5988924074918032,1,24,226.36901601403952,90,224.76837625261396,0.26666666666666666,3.218945607375012e-05,0.9999678105439262,10.343839420189346
42,0,215.44410956464708,1.5992455915547907,1,6,218.04678902495652,26,216.44624052289873,0.23076923076923078,0.00646837076287099,0.993531629237129,5.034341634939896,0,233.12517738202587,1.2977948496118188,0,71,235.44258028408512,69,234.14291956229135,1.0289855072463767,0.5717668844850095,0.4282331155149906,-0.28906365397903605,0,216.7449005553499,0.8484807540662587,1,58,218.59671483235434,58,217.7468936368823,1.0,0.26088724036263944,0.7391127596373606,1.0413622086822205,1,228.86992188869044,2.5501691647805274,1,32,232.4404177214019,16,229.88805320346728,2.0,0.3950236821880666,0.6049763178119334,0.42624359514178783
43,0,220.5478916396387,1.8337694806978106,0,50,223.40072240820155,7,221.56553584476933,7.142857142857143,0.9116551296852615,0.08834487031473853,-2.334013635157309,1,237.94266166677698,1.1659764954820275,0,97,240.11249474575743,61,238.94446590915322,1.5901639344262295,0.9978624331680227,0.0021375668319773395,-6.145947236531159,0,221.09745517652482,1.1825433694757521,0,78,223.2995805242099,34,222.11578362667933,2.2941176470588234,0.9945575081580778,0.0054424918419221984,-5.2080609076567,0,234.94107431266457,1.899703941307962,1,56,237.86060161422938,59,235.9587185177952,0.9491525423728814,0.08862473279043726,0.9113752672095627,2.3305437715312105
44,0,225.9039192404598,1.049006896559149,1,15,227.97015947848558,42,226.91978290630504,0.35714285714285715,0.0024979657588142246,0.9975020342411858,5.989777483932298,1,242.61280170781538,2.1833441578783095,1,55,245.8160087321885,95,243.63054467830807,0.5789473684210527,0.0034152133365144,0.9965847866634856,5.6760942589920935,1,225.80104738520458,1.0324680712074041,1,3,227.8526881514117,18,226.81896694749594,0.16666666666666666,0.005021426441473187,0.9949785735585268,5.289007157786618,1,240.3609488727525,2.199305009096861,1,53,243.5804928462021,40,241.37932038493454,1.325,0.38583492971305355,0.6141650702869464,0.46485410136163097
45,1,230.47106535267085,1.1160238236188889,1,74,232.6065411795862,60,231.48929780349135,1.2333333333333334,0.18340763132015003,0.81659236867985,1.493428864396961,0,248.3163042375818,2.0999717134982347,1,15,251.42028107773513,42,249.3181274435483,0.35714285714285715,0.0006286712559242513,0.9993713287440757,7.371273214527512,1,230.35377259366214,0.6481007845140994,1,15,232.02138938149437,42,231.3725000550039,0.35714285714285715,0.0019726080258942735,0.9980273919741057,6.226424184585003,1,246.0824369401671,1.097892508842051,1,56,248.18359541660175,46,247.08404167741537,1.2173913043478262,0.3148471722422239,0.6851528277577761,0.7775545659846622
46,1,235.1074344124645,0.7643000152893364,1,19,236.89273625425994,37,236.12698715599254,0.5135135135135135,0.0072848023902220005,0.992715197609778,4.914653499137467,1,253.92027001595125,1.5159134436398745,1,17,256.4565567448735,82,254.93844755319878,0.2073170731707317,1.0435805738118198e-05,0.9999895641942619,11.470257369594824,1,234.5232062661089,1.1342294104397297,0,58,236.6598870283924,6,235.52510334784165,9.666666666666666,0.9950613528736125,0.0049386471263874465,-5.305712963799259,1,250.68429546430707,0.9318855935707688,1,46,252.63646308379248,40,251.70278905006126,1.15,0.1966018822212996,0.8033981177787004,1.4076695975734048
47,0,239.39584301272407,0.8653328628279269,1,71,241.2788682775572,64,240.41220247978345,1.109375,0.08860967234732098,0.911390327652679,2.3307302457892645,0,258.9569454845041,1.8829746968112886,0,86,261.8604783550836,59,259.97540549049154,1.4576271186440677,0.9862271871029757,0.013772812897024275,-4.271190171867621,0,239.1601224844344,1.2321784128434956,0,62,241.39547876641154,17,240.16198006039485,3.6470588235294117,0.9903113396032119,0.009688660396788108,-4.627063207736132,1,255.13726347731426,0.8491736906580627,1,87,257.006171639543,89,256.15534698963165,0.9775280898876404,0.14943500924156916,0.8505649907584308,1.7390392461623114
48,0,243.7802296569571,3.4148478070273995,1,80,248.2166955852881,60,244.80059701623395,1.3333333333333333,0.30799818867833506,0.6920018113216649,0.8094946710893154,1,264.36079993471503,1.9996922477148473,0,54,267.38040719693527,31,265.3786953985691,1.7419354838709677,0.7861777111505498,0.2138222888494502,-1.3020376183947562,0,243.8987463139929,1.9482280733063817,0,50,246.8651629863307,7,244.91585718700662,7.142857142857143,0.9792786630677908,0.020721336932209226,-3.8556523034817807,0,259.5067910947837,1.9835366318002343,1,12,262.51010723551735,3,260.52466285508126,4.0,0.1726426363205803,0.8273573636794197,1.5670129502003076
49,1,250.71791829867288,1.9823474986478686,1,62,253.7036001100205,43,251.71988135576248,1.441860465116279,0.31948782622599237,0.6805121737740076,0.756126540873716,1,269.8809286770411,1.52982629975304,1,52,272.4342294889502,68,270.9022437869571,0.7647058823529411,0.03826888003654283,0.9617311199634572,3.2240978762996577,1,249.36678747599944,1.4983790656551719,1,54,251.86848149681464,78,250.36890618735924,0.6923076923076923,0.01557262244510893,0.9844273775548911,4.146545728521516,0,265.01021785242483,1.3667037235572934,1,22,267.39674691157416,31,266.02840408077464,0.7096774193548387,0.02751740412682724,0.9724825958731728,3.565033497228798
50,1,256.2050740821287,1.1653214846737683,0,82,258.37336444854736,40,257.20677718892694,2.05,0.869342163084792,0.13065783691520802,-1.895154817038968,0,274.93395571177825,1.3489615432918072,1,6,277.2866114685312,26,275.9358836086467,0.23076923076923078,0.000677631392719702,0.9993223686072803,7.296229225331582,1,254.37024741852656,0.7984660579822958,1,88,256.18841713340953,96,255.38846248667687,0.9166666666666666,0.33190008937078985,0.6680999106292101,0.6996037411667162,1,269.89686661493033,1.112077166326344,1,24,272.0160126038827,69,270.9021213185042,0.34782608695652173,0.00039542079801024865,0.9996045792019898,7.8351645496888995
51,0,260.87579328240827,1.6469389111734927,0,53,263.5439410316758,15,261.89557239599526,3.533333333333333,0.8436066683261455,0.1563933316738545,-1.685312162334173,1,279.7877630707808,1.065861374605447,1,42,281.8735769907944,39,280.805816559121,1.0769230769230769,0.13196863181183227,0.8680313681881677,1.8836635959161148,1,258.689867796842,1.482632337603718,0,98,261.1755796330981,73,259.69199361884966,1.3424657534246576,0.9774179351553957,0.022582064844604347,-3.7677583342584433,0,274.51692479941994,1.4159089401364326,0,59,276.95295023499057,65,275.5350746824406,0.9076923076923077,0.06640662022652377,0.9335933797734762,2.6432442361542416
52,0,266.04486112855375,0.9823980666697025,1,58,268.0467270007357,58,267.06307264091447,1.0,0.04437937188361263,0.9556206281163874,3.0695862375147818,1,284.37409333512187,0.965323933865875,1,24,286.3596341102384,69,285.3922846997157,0.34782608695652173,0.00017018110758004745,0.99982981889242,8.678477153688391,1,263.6765570132993,1.2983190952800214,1,87,265.97813536040485,89,264.67853666329756,0.9775280898876404,0.4972025377057451,0.5027974622942549,0.011189965938504616,1,279.45336899952963,2.0167616396211088,0,98,282.4900176040828,73,280.47148648742586,1.3424657534246576,0.8394173547394697,0.1605826452605304,-1.653899292073917
53,0,270.54780156584457,1.0515036801807582,1,96,272.61810342408717,89,271.565819893498,1.0786516853932584,0.07064366998513094,0.9293563300148691,2.5768437199562335,0,288.8603736641817,1.5164807508699596,0,95,291.3968492317945,16,289.8783809300512,5.9375,0.9999797027346657,2.0297265334258548e-05,-10.805004096117864,1,268.47924390109256,0.8661383911967278,1,55,270.3649678262882,95,269.49752257345244,0.5789473684210527,0.002339324776406193,0.9976606752235938,6.0555508830731215,1,284.9908306389116,1.783060661982745,0,82,287.7935996991582,40,286.0086680287495,2.05,0.968964486364658,0.031035513635341933,-3.4410958115157166
54,0,275.11942213680595,1.315692288801074,1,60,277.45311537059024,70,276.1361276777461,0.8571428571428571,0.01302709680842895,0.986972903191571,4.327611027294345,0,293.8971396018751,1.5657637943513691,1,41,296.48332527372986,22,294.91570311319083,1.8636363636363635,0.4575486611711752,0.5424513388288248,0.17021514110503075,0,272.8659862927161,1.5325229847803712,0,86,275.4178514541127,59,273.88412550929934,1.4576271186440677,0.9702459396896701,0.029754060310329844,-3.484583981733438,0,290.29412038903683,1.7157991919666529,0,55,293.0300886197947,60,291.31241288920864,0.9166666666666666,0.07013011224266874,0.9298698877573313,2.584692407680429
55,1,279.9542819852941,1.0322231338359416,1,50,282.0061017139815,62,280.9726183367893,0.8064516129032258,0.011241556112000395,0.9887584438879996,4.476832779996787,1,298.98345485376194,1.2989982045255601,0,87,301.28653996251523,89,299.9858137620613,0.9775280898876404,0.7505509189877637,0.24944908101223626,-1.1015526852802644,0,277.91940917866305,1.5991855426691473,0,62,280.5215533315204,16,278.92109134746715,3.875,0.9914150478710396,0.008584952128960419,-4.749122345668468,1,295.5308206677437,2.216843733098358,1,40,298.7678322540596,93,296.5488342544995,0.43010752688172044,0.0001940472712856911,0.9998059527287143,8.547214696060806
56,1,284.50801736395806,0.715808673761785,1,53,286.2426072275266,55,285.5254735201597,0.9636363636363636,0.036684357676338486,0.9633156423236615,3.2680306850506287,1,303.7874489976093,2.8501396141946316,0,62,307.6574060465209,43,304.805474831257,1.441860465116279,0.8152141198394629,0.18478588016053712,-1.4842530522336368,1,283.02274641534314,1.132640475872904,1,43,285.174437512178,97,284.04048978025094,0.44329896907216493,0.00025053247468553863,0.9997494675253145,8.291671442515407,1,301.2679993645288,1.2322364868596196,0,58,303.5207782224752,6,302.2866813945584,9.666666666666666,0.9862144055571849,0.013785594442815184,-4.2702496148344515
57,1,288.7435316699557,1.3493246040306985,1,56,291.11206491990015,46,289.7614409606904,1.2173913043478262,0.14044951652627657,0.8595504834737234,1.8115614477352235,1,310.1580152302049,1.064036589115858,0,94,312.2438481133431,46,311.17803454073146,2.0434782608695654,0.9992929975175857,0.0007070024824142632,-7.253769128353186,1,287.6758613116108,0.8155891778878868,1,56,289.510946739465,46,288.6939610214904,1.2173913043478262,0.5228209000065975,0.47717909999340247,-0.09134706590952713,0,306.0212771841325,2.733153027482331,1,60,309.77457712683827,70,307.0397012392059,0.8571428571428571,0.04286618803058373,0.9571338119694163,3.1058598487188145
58,1,293.61336704017594,0.7307407860644162,1,15,295.3651155792177,56,294.6330789932981,0.26785714285714285,0.0004421374657503918,0.9995578625342496,7.723447480517301,1,314.7435640646145,1.3497947263531387,1,45,317.097115423996,40,315.7455496401526,1.125,0.19414759837363826,0.8058524016263617,1.4232819150559979,1,292.01174476230517,0.9485879736021161,1,46,293.9635777650401,40,293.0136647578329,1.15,0.30231461652255875,0.6976853834774412,0.8363000094778823,0,312.2757721859962,1.1488111042417586,1,12,314.44469583500177,23,313.2936664642766,0.5217391304347826,0.018775893158994306,0.9812241068410057,3.956227112579611
59,0,297.86598747828975,1.1821459387429059,0,62,300.0511710392311,17,298.8676937459968,3.6470588235294117,0.9215464396648896,0.07845356033511044,-2.463546309926404,0,319.5977143361233,3.0827676062472165,1,55,323.70064742537215,60,320.61602777428925,0.9166666666666666,0.14734410896889283,0.8526558910311072,1.7555853272867348,0,296.4646641826257,0.9319863342680037,0,55,298.39988527446985,60,297.4664589436725,0.9166666666666666,0.14387382627383127,0.8561261737261687,1.7834810554413212,1,316.9452947471291,1.7823388865217566,0,62,319.74710301915184,43,317.9636512468569,1.441860465116279,0.5960311420017386,0.4039688579982615,-0.38895512655375347
60,1,309.55850297259167,1.1150464434176683,1,12,311.69216705067083,9,310.5759346350096,1.3333333333333333,0.09576112733347597,0.904238872666524,2.245236731493696,1,333.20954616973177,1.3152257222682238,1,16,335.5430078981444,10,334.22570929210633,1.6,0.026700510107672826,0.9732994898923272,3.5960091649511483,1,307.9072638247162,1.1656786194071174,1,69,310.090905463323,61,308.924067735672,1.1311475409836065,0.6031152741557919,0.3968847258442081,-0.4184624708003404,1,329.2540865088813,1.3322804966010153,1,12,331.60590078588575,9,330.2718926887028,1.3333333333333333,0.092475468069947,0.907524531930053,2.2837771989141
61,1,314.1933846282773,0.8322291383519769,1,66,316.0288599813357,59,315.1953137102537,1.11864406779661,0.09266612171192301,0.907333878288077,2.281507550955872,1,338.0431509097107,0.8988359929062426,1,19,339.96207929961383,37,339.0614177309908,0.5135135135135135,0.002357000764895978,0.997642999235104,6.048005547643539,0,312.59252521255985,0.9154514595866203,1,12,314.5275234901346,23,313.61085919383913,0.5217391304347826,0.012065084297734563,0.9879349157022654,4.405301134765011,1,334.1064329328947,0.8157965848222375,1,46,335.94223974179476,36,335.1245938776992,1.2777777777777777,0.28295986143469,0.71704013856531,0.9298267650975448
62,0,318.5302897063084,1.7996326722204685,1,87,321.3487782352604,85,319.54786635609344,1.0235294117647058,0.04280260271181202,0.957197397288188,3.107410725179227,0,342.4626766317524,1.4664944992400706,1,45,344.9490174045786,60,343.4808348105289,0.75,0.02499972975473297,0.975000270245267,3.6635727331733485,0,317.02861385792494,1.0329156750813127,1,7,319.0808574873954,54,318.04654645733535,0.12962962962962962,0.00012105610700396952,0.999878943892996,9.019135362157922,0,338.44302591262385,1.199149354826659,1,87,340.66201719641685,85,339.46123465988785,1.0235294117647058,0.22076800502269778,0.7792319949773022,1.2611964136864517
63,0,323.84976272657514,1.1325425007380545,0,62,325.9855984542519,16,324.85175857366994,3.875,0.9300449406135083,0.06995505938649171,-2.587379881111024,0,347.44963448960334,1.299074056558311,0,40,349.76842840062454,15,348.4675900028087,2.6666666666666665,0.6042219216988927,0.39577807830110734,-0.42308790464738,0,321.58180721336976,0.8653000723570585,0,96,323.4665818074718,89,322.59999502217397,1.0786516853932584,0.8149969028476973,0.18500309715230273,-1.4828117467447792,1,343.16271408321336,1.1491796956397593,1,10,345.3314457330853,44,344.18061902886257,0.22727272727272727,0.0011880207805192722,0.9988119792194807,6.734277839138452
64,1,328.48649050155655,2.634452619589865,0,98,332.12388434866443,73,329.4882489168085,1.3424657534246576,0.40913835381411,0.59086164618589,0.36752851656643304,1,352.2694306699559,1.316810310818255,0,75,354.60600942745805,70,353.2875193185173,1.0714285714285714,0.7191489568788151,0.2808510431211849,-0.9402440754278106,0,325.9680664460175,1.499065681360662,1,24,328.4703147369437,90,326.96997893508524,0.26666666666666666,2.5134070871124514e-05,0.9999748659291289,10.591261092657339,1,347.8326020757668,0.9989898297935724,1,15,349.851563018281,19,348.85043551493436,0.7894736842105263,0.044179025249935,0.955820974750065,3.0743204960129917
65,0,334.6243943721056,1.1829246035777032,1,28,336.82605275837705,41,335.6418173429556,0.6829268292682927,0.012320587819381168,0.9876794121806188,4.384086493914488,0,357.10598730435595,2.2497779759578407,0,60,360.37574903527275,40,358.12429205095395,1.5,0.8082531333147355,0.19174686668526453,-1.4386991937739158,1,330.971147920005,1.7989843776449561,1,32,333.7732362905517,16,331.97292727418244,2.0,0.44253421067911813,0.5574657893208819,0.2308833632758122,1,352.3521153135225,0.782369701191783,1,28,354.1547002750449,82,353.3707301830873,0.34146341463414637,0.00014344691804080156,0.9998565530819592,8.849402043113654
66,0,339.327420853544,0.8821885264478624,1,68,341.22870661877096,63,340.3454293049872,1.0793650793650793,0.07250285531307388,0.9274971446869261,2.5488637712584703,1,362.8760129357688,1.7665467262268066,0,66,365.64599116006866,59,363.8776208329946,1.11864406779661,0.6118785146377831,0.3881214853622169,-0.45521536009440217,1,336.27445307793096,1.4150658803991973,1,14,338.71038606902584,8,337.2940623150207,1.75,0.09600585666861927,0.9039941433313807,2.2424136851836898,1,356.65502422489226,0.9322324567474425,1,42,358.59063287172467,67,357.6567403692752,0.6268656716417911,0.005641990245574102,0.9943580097544259,5.171860428906494
67,1,343.73011540528387,1.1815865323878825,1,6,345.9154498795979,8,344.7325786096044,0.75,0.05703643590300955,0.9429635640969904,2.805337353616723,0,368.146536343731,1.1490983134135604,1,9,370.31578749837354,7,369.16466054785997,1.2857142857142858,0.009995675851162678,0.9900043241488373,4.595556726354167,1,341.21141638746485,0.7653536424040794,1,53,342.99677195819095,55,342.23015491105616,0.9636363636363636,0.18165336150719902,0.818346638492801,1.5051857463759268,0,361.09158694325015,1.1486736228689551,1,28,363.26027790177613,41,362.1098557393998,0.6829268292682927,0.018862940066956768,0.9811370599330432,3.9515130102369302
68,0,348.4164782227017,1.1661222726106644,0,95,350.6018755119294,16,349.43454593326896,5.9375,0.9982545884064338,0.0017454115935662245,-6.349017944303085,1,372.81607312709093,1.0494750430807471,1,10,374.8854252588935,44,373.83434389857575,0.22727272727272727,0.00019364389819853667,0.9998063561018015,8.549295999282123,1,345.49810844892636,0.8145549087785184,1,4,347.33262617420405,22,346.5168631696142,0.18181818181818182,0.0036431981517180967,0.9963568018482819,5.611243519217814,0,365.7610984425992,1.0474140113219619,0,40,367.8135901703499,15,366.76425695372745,2.6666666666666665,0.6836767397915096,0.3163232602084904,-0.7707205372192042
69,1,353.1030843979679,2.183607268612832,1,53,356.30593310203403,40,354.12100317003205,1.325,0.19615092944513124,0.8038490705548688,1.4105271172813274,1,377.3863777508959,0.7983427993021905,1,15,379.2046979838051,56,378.40459558414295,0.26785714285714285,0.00013109243298992102,0.9998689075670101,8.93947678720922,0,349.83395357849076,0.9653144525364041,1,45,351.81866393610835,42,350.852192745544,1.0714285714285714,0.22332073352072834,0.7766792664792717,1.246418475640697,0,370.31371303414926,2.816863643936813,1,78,374.1341468426399,65,371.315492387861,1.2,0.4789690150258077,0.5210309849741923,0.0841736035794282
70,1,358.80705942073837,0.8674855483695865,1,16,360.69288882706314,10,359.82485809456557,1.6,0.12863139498946763,0.8713686050105324,1.9131141738065534,1,381.7054075128399,0.9990170886740088,1,50,383.7083029136993,62,382.70744128571823,0.8064516129032258,0.05051698084247769,0.9494830191575223,2.9336081120417745,1,354.3196231434122,1.348621395882219,1,46,356.6728900591843,36,355.3228717283346,1.2777777777777777,0.413852106171536,0.586147893828464,0.3480634577485384,0,376.63473982876167,1.1320561808533967,1,37,378.7709887898527,52,377.63678071275353,0.7115384615384616,0.017067079473742863,0.9829329205262571,4.053389447273267
71,1,363.1931511471048,1.0146887553855777,1,46,365.2111173267476,40,364.1953611173667,1.15,0.09899420798403746,0.9010057920159625,2.208450342806916,1,386.2088848380372,1.8833199799992144,0,32,389.1115442290902,16,387.2265227222815,2.0,0.22876169886552977,0.7712383011344702,1.2153165609677752,0,359.17318398458883,1.1660689394921064,0,80,361.3419950408861,60,360.1752746463753,1.3333333333333333,0.9142386890785222,0.08576131092147773,-2.366523702012246,1,381.27161851665005,1.368411966599524,1,58,383.6591601166874,58,382.2891220799647,1.0,0.12546042174321503,0.874539578256785,1.941707207351738
72,0,367.7120856209658,0.8661613049916923,1,7,369.5813489430584,54,368.7138633946888,0.12962962962962962,0.00022760014424660913,0.9997723998557534,8.387692595890762,0,391.6122091165744,2.2829243666492403,0,78,394.9151634601876,65,392.6304877893999,1.2,0.8882226008007456,0.11177739919925449,-2.0727130017231303,1,363.84296807600185,1.0142391761764884,0,41,365.861292575486,7,364.845983969979,5.857142857142857,0.9138558343325945,0.08614416566740546,-2.361650590798497,0,386.15834668651223,1.2655164077877998,1,45,388.4440558361821,92,387.17639780417085,0.4891304347826087,0.0004287043043179617,0.999571295695682,7.754314347790008
73,0,372.0825183233246,0.7989306496456265,1,7,373.9008978153579,54,373.1007341812365,0.12962962962962962,0.00022760014424660913,0.9997723998557534,8.387692595890762,0,397.4163498277776,1.0500198318623006,1,14,399.4856889224611,7,398.4342500320636,2.0,0.025541856624032744,0.9744581433759673,3.6415630234108716,0,368.3632153365761,1.1665090373717248,0,41,370.54847632953897,22,369.38071336923167,1.8636363636363635,0.6296611736960942,0.37033882630390574,-0.5307635218134544,1,390.9444524771534,2.016236998606473,1,15,393.9643663065508,56,391.9462906951085,0.26785714285714285,0.0005558996583231446,0.9994441003416769,7.494366696414479
74,1,376.4021319854073,0.7989614643156528,1,75,378.22017804626375,70,377.41992512810975,1.0714285714285714,0.06800314132939322,0.9319968586706068,2.617775544025219,0,401.98577702138573,1.5490357354283333,0,87,404.5383264273405,76,402.9874888197519,1.144736842105263,0.9280918915810955,0.07190810841890445,-2.5577417170565404,0,373.049624375999,0.9986287443898618,0,53,375.06773198768497,15,374.0677675427869,3.533333333333333,0.9669836843808981,0.033016315619101885,-3.3771797709175195,0,396.46501578669995,0.9985781759023666,1,58,398.48442907398567,58,397.4836749029346,1.0,0.12546042174321503,0.874539578256785,1.941707207351738
75,0,380.72095947666094,1.3148227599449456,1,45,383.05668411264196,92,381.7406303435564,0.4891304347826087,0.00015658028612097752,0.999843419713879,8.761785076625115,0,407.0391643512994,1.0157064320519567,0,77,409.0587597619742,72,408.0408145203255,1.0694444444444444,0.7498500049144501,0.25014999508554997,-1.0978124747933986,0,377.56900961417705,2.6325737102888525,0,28,381.2055604015477,18,378.5717454100959,1.5555555555555556,0.24250356857625177,0.7574964314237482,1.1390024003330563,0,400.98455509822816,1.5328410086221993,1,68,403.5210310611874,63,401.9863810692914,1.0793650793650793,0.2328779412372417,0.7671220587627583,1.1921314676440307
76,1,385.5579826775938,0.9156853356398642,1,54,387.47675304301083,78,386.5596897350624,0.6923076923076923,0.002467168832571476,0.9975328311674285,6.002213790078958,0,411.559110970702,2.6664268649183214,1,53,415.2293841475621,57,412.5607785223983,0.9298245614035088,0.14171244914107317,0.8582875508589268,1.8011391857464543,0,383.70726864458993,1.1489560916088521,1,60,385.87509560445324,70,384.72471650410444,0.8571428571428571,0.10210316240041606,0.8978968375995839,2.1740714832739676,0,406.0214419243857,0.848869098816067,1,71,407.8902702848427,69,407.03946262272075,1.0289855072463767,0.18170596381570203,0.818294036184298,1.5048319322670622
77,1,389.9776972383261,0.9650738607160747,1,42,391.96269796509296,39,390.9963069721125,1.0769230769230769,0.0730623646716404,0.9269376353283596,2.5405729004940616,0,417.7294469620101,1.3327186186797917,1,22,420.0660221641883,31,418.7312156492844,0.7096774193548387,0.008134105928074176,0.9918658940719258,4.803522080442401,1,388.3760307133198,1.1152546405792236,1,42,390.4945825310424,67,389.378026955761,0.6268656716417911,0.00819585190955241,0.9918041480904476,4.795897494843532,0,410.3906325553544,2.3654351835139096,1,96,413.7614966640249,89,411.3939083996229,1.0786516853932584,0.3712523663114796,0.6287476336885204,0.5268478938900316
78,0,394.4641944556497,0.9656127234920859,1,54,396.44918925641105,80,395.48237594310194,0.675,0.0019269636464710471,0.998073036353529,6.249880932448172,0,422.5664089289494,1.0491139576770365,0,50,424.63518703728914,7,423.5842348621227,7.142857142857143,0.9618448214029464,0.03815517859705363,-3.227191637780928,1,392.9959470713511,1.066030855756253,1,15,395.08148642396554,56,394.01422218838707,0.26785714285714285,0.0003577736788948904,0.9996422263211051,7.935252115637463,0,416.2615567133762,2.0995881096459925,0,80,419.38117756554857,60,417.27977257128805,1.3333333333333333,0.6862199182765394,0.31378008172346056,-0.7825057930759038
79,1,398.950633993838,0.8484665318392217,1,4,400.8187172692269,22,399.96881745709106,0.18181818181818182,0.008434242038148132,0.9915657579618519,4.7669854146372845,1,427.13744638999924,2.166076445952058,1,40,430.32282195053995,93,428.15472160838544,0.43010752688172044,0.0002449904552159765,0.999755009544784,8.314046286010297,0,397.5827344208956,1.6323319333605468,0,87,400.23444566642866,85,398.6008566496894,1.0235294117647058,0.6170502269057253,0.3829497730942747,-0.47704658579084097,0,421.88196531683207,0.9990625204518437,1,45,423.9011486787349,60,422.9003735696897,0.75,0.019235559453819273,0.9807644405461807,3.931571687982965
80,1,410.32728100242093,2.3984630554914474,0,97,413.74413848342374,61,411.3442686162889,1.5901639344262295,0.7319395287363137,0.2680604712636863,-1.004485305431067,0,439.84541073674336,2.549414203967899,1,12,443.4146159058437,3,440.86315923789516,4.0,0.02724923791598166,0.9727507620840183,3.5751023409647193,1,409.7419352289289,1.0481851696968079,1,17,411.8088529962115,82,410.7593309408985,0.2073170731707317,2.0878091558262923e-05,0.9999791219084417,10.776789321283939,1,433.42385203251615,2.482661967165768,0,41,436.9261813107878,7,434.4416886321269,5.857142857142857,0.8654244268651023,0.13457557313489768,-1.861094130201179
81,0,416.24533670255914,1.5483246259391308,1,86,418.81428271206096,59,417.264706928283,1.4576271186440677,0.4995682734580299,0.5004317265419701,0.0017269065970463278,1,445.91542578069493,1.3679608069360256,1,53,448.30317241698503,40,446.9335693423636,1.325,0.5257541898275617,0.4742458101724382,-0.10310800965329037,1,414.3105035601184,0.8158534737303853,1,25,416.1455787164159,37,415.32815369125456,0.6756756756756757,0.01877774517637576,0.9812222548236242,3.956126591941873,0,439.4267877289094,1.081460745073855,1,14,441.52946521388367,57,440.4464262011461,0.24561403508771928,0.00043119651432244055,0.9995688034856776,7.748515332563697
82,0,421.3152687838301,1.9503226857632399,1,9,424.28476890549064,7,422.333007408306,1.2857142857142858,0.08790105370448709,0.9120989462955129,2.3395366857782824,0,450.80211444431916,1.249570173677057,1,38,453.0712448679842,43,451.81988783413544,0.8837209302325582,0.04331742284396545,0.9566825771560346,3.0949167218942257,1,418.64660863997415,0.6985887638293207,1,52,420.36457987641916,68,419.664636448957,0.7647058823529411,0.03704209500133404,0.962957904998666,3.257954729794439,1,444.0304923723452,1.1993121202103794,1,75,446.249049088452,70,445.0480121332221,1.0714285714285714,0.25245888029285235,0.7475411197071476,1.0855409282650124
83,1,426.78585729794577,1.9829499660991132,1,24,429.7880443544127,69,427.8037717244588,0.34782608695652173,0.00024662803824393453,0.9997533719617561,8.307382615955337,1,455.57186748366803,1.3318475093692541,1,25,457.90782441571355,37,456.57420387351885,0.6756756756756757,0.007368004374584736,0.9926319956254153,4.903213104111617,1,422.86575676267967,0.6322730691172183,1,14,424.5178097356111,57,423.88416462019086,0.24561403508771928,0.0002682530697443175,0.9997317469302557,8.223311443868063,1,448.75015565380454,0.8486004578880966,1,43,450.61813502851874,93,449.7683940306306,0.46236559139784944,0.0002906352279079538,0.999709364772092,8.143150911969833
84,0,432.28920069755986,2.0996114183217287,0,43,435.40840476052836,7,433.3074588268064,6.142857142857143,0.82289566691998,0.17710433308002002,-1.5360904096317207,1,460.40840199496597,0.898686264641583,1,15,462.3266346822493,19,461.4262204216793,0.7894736842105263,0.008203648722545531,0.9917963512774545,4.794938773692617,0,427.0187373380177,1.0494122286327183,1,71,429.0872444352135,69,428.03665650542825,1.0289855072463767,0.4437367302953309,0.5562632697046691,0.22601025206206438,1,453.11958174128085,1.0490479823201895,1,42,455.18886631773785,39,454.13797379657626,1.0769230769230769,0.13860075028318963,0.8613992497168104,1.8269606015754538
85,0,437.9093406596221,1.0657152021303773,1,35,439.9946390250698,62,438.92756007332355,0.5645161290322581,0.0020524464259157327,0.9979475535740843,6.18666826326592,1,464.8275061864406,1.0657183625735343,1,12,466.9135243529454,9,465.84609103156254,1.3333333333333333,0.014102649058585492,0.9858973509414145,4.247189586399914,0,431.5881902105175,0.8659080709330738,1,28,433.47337487805635,41,432.60661466093734,0.6829268292682927,0.018958496464173025,0.981041503535827,3.946362572776785,0,457.68929219339043,1.0996430232189596,1,60,459.8083650963381,61,458.7069762996398,0.9836065573770492,0.1160157307540155,0.8839842692459845,2.030713475648129
86,0,442.49601502204314,0.8322646939195693,1,45,444.34802919998765,60,443.51444618823007,0.75,0.00816977322587864,0.9918302267741214,4.799110798717268,1,469.4142848448828,0.7654034201987088,1,43,471.19968821806833,97,470.4324497403577,0.44329896907216493,0.00027741785566759436,0.9997225821443324,8.189708227868207,0,435.9743257891387,3.1508654202334583,1,45,440.14473210135475,60,436.99265107885003,0.75,0.030963806921070813,0.9690361930789292,3.4434829584227473,1,462.30922830384225,1.1992204659618437,1,69,464.52816704427823,61,463.32723359484226,1.1311475409836065,0.30607746210171627,0.6939225378982837,0.8185221233758473
87,1,446.84909704932943,1.3824785007163882,1,52,449.2511184173636,68,447.8672481174581,0.7647058823529411,0.006747209831635459,0.9932527901683645,4.9918561426686265,1,473.7004095991142,1.5848278482444584,1,69,476.30464915419,61,474.7185701485723,1.1311475409836065,0.690740290609386,0.30925970939061403,-0.8035825000486512,1,442.64563639555126,0.7985999835655093,1,24,444.4473233842291,69,443.64744537882507,0.34782608695652173,0.00032608732754002556,0.99967391267246,8.028019196074684,0,467.029031437356,1.6994610582478344,0,41,469.74869274394587,22,468.04716077726334,1.8636363636363635,0.517288981716459,0.48271101828354107,-0.06918350841670134
88,0,451.75189392175525,2.6999777974560857,0,71,455.45496978610754,69,452.7538249786012,1.0289855072463767,0.04974132777699514,0.9502586722230049,2.9498981017123667,0,478.8047763640061,1.0661355471238494,1,24,480.88956075534225,90,479.82163992896676,0.26666666666666666,1.6195150571163275e-05,0.9999838048494288,11.030782512716673,1,446.94871992385015,0.8988415240310133,0,82,448.8666673777625,40,447.9666367210448,2.05,0.9941747254575499,0.005825274542450072,-5.1397068412552525,1,472.24869234859943,1.6159843178465962,0,94,474.8689022366889,46,473.25064789969474,2.0434782608695654,0.9871386866071369,0.01286131339286316,-4.340586699164966
89,0,457.95648326398805,2.083528493065387,1,78,461.05917339073494,65,458.9742716662586,1.2,0.16021347318110424,0.8397865268188958,1.6566405914482982,0,483.3901675688103,1.1989466887898743,1,71,485.6094006295316,64,484.4086939445697,1.109375,0.700385942585792,0.299614057414208,-0.849136358508372,0,451.36816228786483,1.0481867496855557,0,68,453.43704903824255,63,452.38763483427465,1.0793650793650793,0.5020859890567624,0.4979140109432377,-0.008344004637524067,0,477.3690725080669,1.2825664412230253,0,50,479.671173915267,7,478.3869304410182,7.142857142857143,0.9557772483606148,0.044222751639385195,-3.0732854824734597
90,1,463.5599307222292,1.148910659365356,1,43,465.711852140259,97,464.56178790330887,0.44329896907216493,6.712203876935163e-05,0.9999328779612306,9.60893099698474,0,488.1097060116008,1.0159979867748916,1,58,490.12973440857604,58,489.1115714884363,1.0,0.2770464036384316,0.7229535963615684,0.9591600237090168,1,455.93817140581086,0.8492586291395128,1,50,457.8066647546366,62,456.956111906562,0.8064516129032258,0.054289776014733726,0.9457102239852663,2.857600282796705,0,482.17195495031774,1.2327915471978486,1,35,484.4083719700575,62,483.17375563737005,0.5645161290322581,0.004000320772383548,0.9959996792276165,5.517372384523437
91,0,468.2130776187405,1.799009661655873,1,60,471.0155254942365,61,469.21529469965026,0.9836065573770492,0.03867538138988891,0.9613246186101111,3.213108886632757,0,492.6300820619799,1.0657744612544775,1,12,494.71554635325447,23,493.64802256273106,0.5217391304347826,0.002972446191204181,0.9970275538087958,5.815393159082077,1,460.30759156728163,1.4995599021203816,0,74,462.81016538804397,60,461.3094467725605,1.2333333333333334,0.7974645679146624,0.20253543208533759,-1.3705225602233884,0,486.91144001251087,2.2500371360220015,0,60,490.17873024288565,40,487.9269745927304,1.5,0.6172663724355549,0.3827336275644451,-0.47796139485014166
92,0,473.516890429426,1.166112001053989,1,28,475.7024248042144,18,474.53495576931164,1.5555555555555556,0.17712999221374548,0.8228700077862545,1.5359143566682174,0,497.21632264740765,2.216565609909594,0,96,500.4528360622935,89,498.23449425864965,1.0786516853932584,0.9436802092329655,0.05631979076703455,-2.818741350578211,0,465.31158326147124,1.3323800517246127,0,43,467.66319368733093,7,466.3294917619787,6.142857142857143,0.9366509611454465,0.06334903885455348,-2.6936509713947827,0,492.679327969905,1.3832808691076934,1,71,495.0825748164207,64,493.697140075732,1.109375,0.28750587090539237,0.7124941290946076,0.9075283916722364
93,1,478.20312445703894,1.6499868049286306,1,43,480.87248741369694,93,479.2211570069194,0.46236559139784944,0.00011014566246014823,0.9998898543375399,9.113596712244876,1,502.9529703827575,1.3160067568533123,0,46,505.2730585131794,40,503.95499585941434,1.15,0.22574710765441963,0.7742528923455804,1.2324831744673372,1,470.16404464794323,7.020050520077348,1,97,478.2038446525112,61,471.18248924613,1.5901639344262295,0.9937348494345536,0.006265150565446366,-5.066467799148336,1,497.58285926049575,0.9126852443441749,1,45,499.51900163386017,40,498.60371609963477,1.125,0.176192821240286,0.823807178759714,1.5423575256036581
94,1,483.37351220147684,0.7153251189738512,1,15,485.09198951069266,19,484.3753180243075,0.7894736842105263,0.04142332815312033,0.9585766718468797,3.1416053466860756,1,507.77301110560074,1.2654583337716758,1,33,510.04243505978957,25,508.77487381733954,1.32,0.11581741033687898,0.884182589663121,2.03264868853192,1,480.7045739348978,0.8306646980345249,1,15,482.5563293476589,19,481.72438070271164,0.7894736842105263,0.03170495037756671,0.9682950496224333,3.419064012141248,1,502.0185769437812,1.2990140072070062,0,97,504.3381925811991,61,503.0374410962686,1.5901639344262295,0.9503928223065938,0.04960717769340617,-2.9527398614712466
95,1,487.5927721261978,1.04862408246845,0,94,489.64461595378816,46,488.5947525659576,2.0434782608695654,0.9255335557134464,0.07446644428655362,-2.520021776546544,1,512.5427704663016,1.9331308254040778,1,28,515.4959435155615,82,513.5608903248794,0.34146341463414637,8.511082411721826e-05,0.9999148891758828,9.371471223110246,1,485.05746198724955,1.432110778056085,0,62,487.49272100487724,43,486.05933299520984,1.441860465116279,0.8105404376186206,0.18945956238137943,-1.4535256214953918,0,506.8389273942448,1.2158774142153561,0,53,509.07472851406783,15,507.8570492276922,3.533333333333333,0.9256466332284324,0.07435336677156752,-2.5216636016124987
96,0,492.14601960452273,0.8660210580565035,1,41,494.0311722718179,22,493.16382262436673,1.8636363636363635,0.366005661535318,0.633994338464682,0.5493912225734626,0,517.9964835639112,1.9998182719573379,1,54,521.017041342333,80,519.0149471247569,0.675,0.014969248171452842,0.9850307518285472,4.186674885992742,1,489.9945367043838,1.1828704797662795,1,58,492.19623617688194,58,491.01205409457907,1.0,0.26088724036263944,0.7391127596373606,1.0413622086822205,0,511.5751425377093,0.9990080022253096,1,7,513.5941212582402,54,512.5933607663028,0.12962962962962962,0.0002404041392052303,0.9997595958607948,8.33294870441873
97,1,496.5318825915456,1.5324455527588725,1,14,499.0674507045187,57,497.53376071015373,0.24561403508771928,0.00034858838895446276,0.9996514116110455,7.9612700839194614,1,523.5168643547222,1.2661374434828758,1,53,525.7864277651533,55,524.5184552646242,0.9636363636363636,0.17120515123691926,0.8287948487630807,1.5771101039347195,1,494.6977895558812,0.7154902550391853,1,26,496.43197132181376,84,495.71537726698443,0.30952380952380953,7.285941856849387e-05,0.9999271405814315,9.526905884462243,0,516.0952049102634,0.9320621858350933,1,86,518.0475202822126,59,517.1130201765336,1.4576271186440677,0.8468484850669108,0.15315151493308923,-1.7100940693763897
98,0,501.56888596061617,0.865217899903655,1,38,503.43712014937773,43,502.57065346231684,0.8837209302325582,0.02954463284976716,0.9704553671502328,3.4918633141043025,1,528.2868382334709,1.5661086826585233,0,88,530.8728623259813,96,529.3049442647025,0.9166666666666666,0.6243960595605191,0.3756039404394808,-0.5082496395278556,1,498.9331596647389,1.2995655122213066,1,33,501.25230083381757,25,499.95146441133693,1.32,0.2380472405940447,0.7619527594059553,1.1634154143686948,1,520.5477170227095,1.0824132370762527,1,52,522.6337837814353,68,521.5496239811182,0.7647058823529411,0.018994253026185626,0.9810057469738144,3.9444418567229134
99,0,505.93803076446056,0.8822458097711205,1,12,507.8235603198409,3,506.9401419693604,4.0,0.18209237272244083,0.8179076272775592,1.502235304385977,1,533.3736911634915,1.3991555967368186,1,58,535.7933144653216,58,534.3923202552833,1.0,0.2770464036384316,0.7229535963615684,0.9591600237090168,0,503.75322014046833,2.4997499263845384,0,53,507.25613766442984,57,504.7550330744125,0.9298245614035088,0.14813500267154833,0.8518649973284517,1.7493040222405984,0,525.1341966199689,1.3825978091917932,1,45,527.5366154192016,42,526.1521734665148,1.0714285714285714,0.14414528251563963,0.8558547174843604,1.7812789418415889
