,self_acceptUp,self_cue_times,self_decision_times,self_decisions,self_punishment_values,self_response_times,self_reward_values,self_trial_times,self_punishment_reward_ratio,self_prob_reject,self_prob_accept,self_SV,harm_other_acceptUp,harm_other_cue_times,harm_other_decision_times,harm_other_decisions,harm_other_punishment_values,harm_other_response_times,harm_other_reward_values,harm_other_trial_times,harm_other_punishment_reward_ratio,harm_other_prob_reject,harm_other_prob_accept,harm_other_SV,harm_self_acceptUp,harm_self_cue_times,harm_self_decision_times,harm_self_decisions,harm_self_punishment_values,harm_self_response_times,harm_self_reward_values,harm_self_trial_times,harm_self_punishment_reward_ratio,harm_self_prob_reject,harm_self_prob_accept,harm_self_SV,other_acceptUp,other_cue_times,other_decision_times,other_decisions,other_punishment_values,other_response_times,other_reward_values,other_trial_times,other_punishment_reward_ratio,other_prob_reject,other_prob_accept,other_SV
0,0,0.0036065198946744204,2.3250727211125195,1,54,3.3536384606268257,80,1.0270447514485568,0.675,0.3104620144321947,0.6895379855678053,0.7979602300673152,1,0.0051188168581575155,1.5743382021319121,0,32,2.6028739172033966,16,1.0268436649348587,2.0,0.9971597720798533,0.002840227920146696,-5.861026707435343,0,0.004066767171025276,0.9910103669390082,0,55,2.019238723674789,60,1.0266390228644013,0.9166666666666666,0.9999394430747195,6.0556925280520424e-05,-9.71186616282279,1,0.0033434086944907904,0.608718462754041,1,28,1.635374473175034,82,1.0254396148957312,0.34146341463414637,0.00012117759583218923,0.9998788224041678,9.018132169347753
1,1,5.854444584343582,1.33124003210105,1,25,8.207047587959096,37,6.873968542786315,0.6756756756756757,0.527019643984713,0.47298035601528693,-0.1081839659535293,1,5.103421275271103,0.7821850003674626,1,10,6.905078480951488,44,6.121457035653293,0.22727272727272727,3.1986236123104916e-06,0.9999968013763877,12.652786763211473,1,4.519822427537292,0.9829119932837784,0,82,6.5059277061372995,40,5.521395564079285,2.05,0.9999999995933463,4.066536974888913e-10,-21.623059158392003,1,4.136312547605485,0.5826534647494555,1,15,5.72182310000062,56,5.137925585266203,0.26785714285714285,0.0012148003008891628,0.9987851996991108,6.711960038337642
2,0,10.707677909173071,1.3662294778041542,0,62,13.093805864220485,17,11.725817570695654,3.6470588235294117,0.9972207822738218,0.0027792177261781303,-5.882802697416946,1,9.40689635812305,0.7643827216234058,1,42,11.192621113033965,67,10.426201452268288,0.6268656716417911,3.621082638194384e-05,0.9999637891736181,10.226116201039037,1,9.006213138345629,1.0294005053583533,0,33,11.058151924284175,25,10.027009195880964,1.32,0.9998295302957726,0.0001704697042274583,-8.676782480608708,0,8.222869026241824,0.6988190414849669,0,80,9.940692519769073,60,9.240757033228874,1.3333333333333333,0.9916230353390585,0.008376964660941483,-4.773857393785141
3,1,15.594157271785662,1.833358551375568,1,3,18.447711386717856,18,16.612105328124017,0.16666666666666666,0.3857054916542555,0.6142945083457445,0.46540036517324257,1,13.693038495955989,0.6656456950586289,0,12,15.378231853013858,9,14.71095613273792,1.3333333333333333,0.8188747387256208,0.18112526127437922,-1.5087422848385001,0,13.55908328271471,0.9960734799969941,0,22,15.562406543176621,31,14.564240815583616,0.7096774193548387,0.9850379617970912,0.014962038202908808,-4.187163973548996,0,12.442278100643307,0.7308143132831901,0,62,14.19383790367283,17,13.461864873766899,3.6470588235294117,0.9999034857278917,9.651427210833248e-05,-9.245723144129506
4,1,20.948264670791104,0.898871268844232,1,28,22.86697239172645,82,21.966102900216356,0.34146341463414637,0.02320666565431051,0.9767933343456895,3.7398355487111106,0,17.87865990260616,1.0330086054746062,1,35,19.915323620662093,62,18.880709088640288,0.5645161290322581,2.104207090347643e-05,0.9999789579290965,10.768965705674777,1,18.062861061887816,1.01592336432077,0,54,20.09852487850003,78,19.08093988383189,0.6923076923076923,0.9982623327151243,0.0017376672848756968,-6.3534725273148,1,16.694800471886992,0.8658136753365397,0,6,18.563597259577364,8,17.696611830731854,0.75,0.5901975548424885,0.4098024451575115,-0.3647821170734778
5,1,25.367881231708452,1.3110503945499659,1,15,27.703954845899716,42,26.390752154402435,0.35714285714285715,0.19544798315651146,0.8045520168434885,1.4149913484873509,0,22.415648559108377,1.081835093908012,0,45,24.517909932881594,42,23.434408072847873,1.0714285714285714,0.6089013677356956,0.39109863226430447,-0.44269651224775947,1,22.598667693324387,0.8995985775254667,1,4,24.50111348205246,22,23.60055174352601,0.18181818181818182,0.5053123035105007,0.49468769648949934,-0.021250013649363388,0,21.064047037623823,0.730926115764305,1,6,22.79985453817062,26,22.067588372388855,0.23076923076923078,0.05101299250409297,0.948987007495907,2.9233147525228143
6,1,30.203998105134815,1.6662288065999746,0,54,32.88988479599357,78,31.22215317422524,0.6923076923076923,0.35142071318912393,0.6485792868108761,0.6128001393577709,0,27.018185093533248,1.0164152164943516,1,60,29.054134144680575,61,28.03610312519595,0.9836065573770492,0.17081947450116275,0.8291805254988373,1.5798306002119993,0,27.00149886473082,0.8170448660384864,0,86,28.821561608463526,59,28.00316563085653,1.4576271186440677,0.9999999971484429,2.851557056054605e-09,-19.67540065354342,0,25.300717945909128,0.7826567043084651,1,55,27.102580188540742,60,26.31860832334496,0.9166666666666666,0.5187914909630703,0.4812085090369297,-0.07520138402881453
7,0,35.39129457436502,1.7323491289280355,1,6,38.14373615547083,26,36.40971433464438,0.23076923076923078,0.29153136256815715,0.7084686374318429,0.8879582017113143,1,31.554530194262043,0.6820431337691844,0,46,33.24039831710979,36,32.556267676409334,1.2777777777777777,0.9569679035613088,0.04303209643869125,-3.1018235862311974,1,31.322520226240158,0.8642440943513066,0,6,33.190332914702594,8,32.324391634436324,0.75,0.9534472235641079,0.04655277643589211,-3.0194974271777393,0,29.60361386812292,1.0326680622529238,0,96,31.655231073498726,89,30.621478961547837,1.0786516853932584,0.9229775404360121,0.07702245956398787,-2.4835078390129426
8,0,40.64403383457102,1.9167438682634383,1,35,43.5641013586428,62,41.645789094502106,0.5645161290322581,0.2412127556138457,0.7587872443861543,1.1460420802487545,0,35.74103574943729,0.8992698860820383,1,6,37.65984460618347,26,36.75880602817051,0.23076923076923078,0.0007915654507213432,0.9992084345492787,7.140706111153703,0,35.69093913724646,0.6317098790314049,0,87,37.326027190545574,76,36.69273587851785,1.144736842105263,0.9999999632061624,3.6793837624109224e-08,-17.117935424866584,0,34.15669774077833,0.8158312358427793,1,45,35.99187594745308,92,35.1749002172146,0.4891304347826087,0.00047592865102907833,0.9995240713489709,7.649766565822939
9,1,46.064640815602615,1.6490858860779554,0,45,48.717231690650806,40,47.0665011620149,1.125,0.875554987519266,0.12444501248073404,-1.9509940052232528,0,40.160168359521776,1.0324330003932118,1,45,42.19670644798316,60,41.162321051582694,0.75,0.0015343279232721274,0.9984656720767279,6.478127322612813,1,39.82639874634333,0.7326181659009308,0,14,41.562728913733736,8,40.828401315025985,1.75,0.9961164438644237,0.0038835561355762944,-5.5471128985955245,1,38.4924754537642,0.6658037197776139,1,3,40.16105645871721,18,39.49419081234373,0.16666666666666666,0.1165229478044153,0.8834770521955847,2.025777087206332
10,0,51.21827406156808,1.54877098207362,0,58,53.78730737278238,58,52.23677125386894,1.0,0.8406283568293782,0.1593716431706218,-1.6629108028044794,0,44.696682546753436,1.2658142284490168,0,80,46.966206406243145,60,45.6984393869061,1.3333333333333333,0.9971237155969985,0.002876284403001495,-5.848375526767323,0,44.06305227195844,0.8993722072336823,0,60,45.982244338607416,70,45.08102205675095,0.8571428571428571,0.9999323692688706,6.763073112938952e-05,-9.601380442691816,1,42.66222840966657,0.6135176743846387,0,98,44.297457500128075,73,43.68277636845596,1.3424657534246576,0.9969273977106775,0.0030726022893224447,-5.782153092767929
11,0,56.287758730817586,1.4329980970360339,0,78,58.72437045886181,34,57.28975142305717,2.2941176470588234,0.9975406162772434,0.002459383722756539,-6.00538206665305,0,49.46703188819811,1.0498216494452208,1,56,51.5359338412527,59,50.48450231482275,0.9491525423728814,0.09800474559653671,0.9019952544034633,2.219593356902682,0,48.483028734102845,0.7656469196081161,1,7,50.268347760429606,54,49.50083614839241,0.12962962962962962,0.011662110879267606,0.9883378891207324,4.439679431823672,1,46.79865987109952,0.7654264750890434,0,74,48.58315637847409,60,47.816608717665076,1.2333333333333334,0.9745728048943643,0.02542719510563568,-3.646179951443623
12,0,61.224903990048915,1.7161942583043128,1,45,63.96068462636322,60,62.242904589744285,0.75,0.5248278384034738,0.4751721615965262,-0.0993930981278096,0,54.036198335234076,1.3660884411074221,0,95,56.405762530630454,16,55.03804682986811,5.9375,0.9999999999993414,6.585527067417848e-13,-28.048731836319618,0,52.76871141488664,0.5506751805078238,0,68,54.321900769136846,63,53.77030114387162,1.0793650793650793,0.999998345760781,1.6542392190680185e-06,-13.312167686946562,1,51.08461198396981,0.7828728030435741,0,75,52.88668084400706,70,52.102567941648886,1.0714285714285714,0.8815724397693973,0.11842756023060277,-2.0074057087248254
13,0,66.46203158982098,1.4158784851897508,0,87,68.8977097866591,76,67.47991920192726,1.144736842105263,0.9556918857916199,0.04430811420838007,-3.0712677406529383,0,58.90604954306036,1.0323543830309063,1,77,60.941755631240085,72,59.90781230921857,1.0694444444444444,0.5443668988688255,0.45563310113117456,-0.17793558310387333,0,56.823324374621734,0.8317822543904185,0,62,58.674172315746546,16,57.84065731987357,3.875,0.999999996093443,3.906556977876808e-09,-19.36060941528856,1,55.38746760971844,0.5492158220149577,1,17,56.95579810603522,82,56.40546425897628,0.2073170731707317,1.53321880403956e-05,0.9999846678119596,11.08554081364505
14,1,71.39831284875982,1.1156618727836758,0,74,73.53383290208876,60,72.41668204101734,1.2333333333333334,0.9598513977684517,0.04014860223154829,-3.1741908523621656,1,63.442701211897656,0.8984319597948343,0,97,65.34460774087347,61,64.44440708914772,1.5901639344262295,0.9999893617491235,1.0638250876522653e-05,-11.451043840561306,1,61.17488362477161,0.7658104754518718,0,58,62.960375292925164,58,62.19291780469939,1.0,0.999983261310498,1.673868950206809e-05,-10.99777104255788,0,59.45673064957373,0.9996709134429693,0,40,61.475528879091144,15,60.47476838505827,2.6666666666666665,0.995832446948765,0.004167553051234927,-5.476249952165748
15,0,76.03463705070317,1.3487973725423217,1,45,78.38697378244251,92,77.03649344644509,0.4891304347826087,0.05400460639186122,0.9459953936081388,2.8631683532248986,1,67.8453230005689,0.7824030744377524,0,66,69.6311334837228,59,68.84685979131609,1.11864406779661,0.7862158648165409,0.213784135183459,-1.3022646000630744,1,65.46119168843143,0.931902787880972,0,87,67.3968380826991,89,66.46319781267084,0.9775280898876404,0.9999996688242876,3.311757123684423e-07,-14.920616418169365,0,63.976555842440575,0.9158921148627996,0,68,65.91162070585415,63,64.99455288657919,1.0793650793650793,0.877663343884532,0.12233665611546796,-1.9704863641693897
16,1,80.88775975815952,1.6291400014888495,0,58,83.52419615769759,6,81.89337437762879,9.666666666666666,0.9984640562802921,0.0015359437197079039,-6.4770731612526316,0,72.13157219998538,1.0161777841858566,1,87,74.15104480041191,76,73.13328400324099,1.144736842105263,0.8967693313792221,0.10323066862077786,-2.1618326878783902,1,69.89721595938317,0.7995084640569985,1,14,71.71616581385024,57,70.91513399127871,0.24561403508771928,0.060934282775803816,0.9390657172241962,2.7350895112632276,0,68.41254653339274,0.7328243884257972,0,62,70.14806247828528,17,69.41410860791802,3.6470588235294117,0.9999034857278917,9.651427210833248e-05,-9.245723144129506
17,0,86.02447092323564,1.700167782837525,1,41,88.72802280611359,22,87.02592712128535,1.8636363636363635,0.9605823029333299,0.03941769706667011,-3.1933247865423433,1,76.65190583770163,1.0152217342983931,1,3,78.67046782025136,18,77.65360144339502,0.16666666666666666,0.00593260384423655,0.9940673961557634,5.121341793860989,0,74.21659465343691,0.5490609577391297,0,45,75.7852886065375,42,75.2345600926783,1.0714285714285714,0.9999319220104911,6.807798950888946e-05,-9.594788525131326,1,72.64914712053724,0.7824007042218,0,46,74.43423740612343,36,73.65066652861424,1.2777777777777777,0.9409115897185274,0.059088410281472555,-2.7678143799782577
18,1,91.2281873493921,1.6830778007861227,1,4,93.91470297868364,22,92.22992443642579,0.18181818181818182,0.32526209176808074,0.6747379082319193,0.7296930378256291,0,81.17117004282773,0.8658425149042159,1,12,83.04033621330746,3,82.17301616701297,4.0,0.9784518911443826,0.021548108855617462,-3.8156835631253623,1,78.28593077976257,1.4498948936816305,1,15,80.75546261947602,42,79.30400960170664,0.35714285714285715,0.5290249580531394,0.4709750419468606,-0.1162305073146332,0,76.93551365355961,0.7819586298428476,0,43,78.72008285229094,7,77.93700935784727,6.142857142857143,0.9994480301772087,0.0005519698227912751,-7.501465059823747
19,0,96.41493191686459,1.516346673015505,0,53,98.95109173376113,57,97.43317389953882,0.9298245614035088,0.7730042592179136,0.22699574078208645,-1.2253533043257414,0,85.5443486594595,0.9494411651976407,0,28,87.51003200397827,18,86.55896357866004,1.5555555555555556,0.9754767121998839,0.02452328780011616,-3.683303098553419,1,83.25580968125723,0.8989775402005762,0,37,85.15841112425551,54,84.25784345995635,0.6851851851851852,0.9935607209035656,0.006439279096434381,-5.0388785859930305,1,81.22167672938667,0.6329329907894135,0,62,82.87337357946672,43,82.23932058829814,1.441860465116279,0.9889722329733039,0.0110277670266961,-4.496249888045973
20,0,108.47446142183617,1.582092081895098,1,14,111.07563696801662,57,109.49182478687726,0.24561403508771928,0.051675177758154556,0.9483248222418454,2.9097195375756333,1,97.0331674204208,0.8156384457834065,1,26,98.86795056494884,84,98.05036604451016,0.30952380952380953,1.8746626473387096e-10,0.9999999998125337,22.397422207937772,0,94.68216244224459,1.5999694222118706,1,24,97.29961532820016,90,95.69852511538193,0.26666666666666666,0.00574662153994121,0.9942533784600588,5.153379958222416,1,92.38066701451316,0.598314112983644,1,42,93.99680315912701,67,93.39726316928864,0.6268656716417911,0.025411733392022073,0.9745882666079779,3.6468040792208085
21,0,113.57674096850678,1.3989903798792511,0,28,115.97880532499403,18,114.57828052458353,1.5555555555555556,0.8989205082643412,0.10107949173565878,-2.185287353994306,1,101.36834819475189,0.6482823300175369,1,55,103.02018331643194,95,102.36996044241823,0.5789473684210527,7.442850047389982e-08,0.9999999255714995,16.413426823146033,0,99.80053522996604,0.4820663633290678,0,71,101.28592090308666,64,100.80231616878882,1.109375,0.9999992407993313,7.592006686263768e-07,-14.090998949751524,0,96.49858508585021,0.6993914861232042,0,53,98.21666299900971,15,97.51606578403153,3.533333333333333,0.9996365666291414,0.0003634333708586401,-7.9195510772390385
22,0,118.47984097967856,1.3498087306506932,0,86,120.84922384168021,59,119.49776888801716,1.4576271186440677,0.9894299140646216,0.010570085935378495,-4.539101002917362,0,105.52086776122451,0.7645826230291277,0,86,107.28994618845172,59,106.52368178707547,1.4576271186440677,0.9997627076978711,0.00023729230212889333,-8.345980513994588,0,103.78641532314941,0.9821566347964108,0,12,105.7722065274138,3,104.78824169421569,4.0,0.996859825291711,0.003140174708288987,-5.760331725624624,1,100.71803485159762,0.699058844242245,0,33,102.43637034506537,25,101.73623179690912,1.32,0.9116464431488118,0.08835355685118822,-2.3339057863249244
23,1,123.34975105174817,1.3824507191311568,0,72,125.73576680920087,51,124.35163036105223,1.411764705882353,0.9780191201643825,0.021980879835617462,-3.7953562430217116,0,109.79051843564957,0.8660064656287432,1,7,111.67611483484507,54,110.80850520823151,0.12962962962962962,2.3784153424522003e-08,0.9999999762158466,17.554246276742145,0,108.27250776207075,0.7985595252830535,0,45,110.07518185698427,92,109.27467072592117,0.4891304347826087,0.7583329484359801,0.24166705156401994,-1.143561576295863,0,104.93736886419356,1.0991775204893202,1,60,107.03938845987432,61,105.93899059318937,0.9836065573770492,0.6968326963584297,0.30316730364157024,-0.8322605376691732
24,1,128.23664483404718,1.4319251088891178,0,41,130.6723427840043,7,129.2385229584761,5.857142857142857,0.9898695303441979,0.010130469655802079,-4.582025466863926,0,114.17670999560505,1.3499414715915918,1,59,116.54606243781745,65,115.19465726194903,0.9076923076923077,0.030178647379020318,0.9698213526209797,3.4699772480998217,0,112.57594768423587,0.5992271008435637,0,51,114.1948634844739,7,113.59395816060714,7.285714285714286,0.9999999724250758,2.757492420614734e-08,-17.406358992879493,0,109.54059478151612,0.6320559536106884,1,7,111.191902495455,54,110.55882886261679,0.12962962962962962,0.0003895277428088706,0.9996104722571911,7.8501858648378535
25,1,133.17306041391566,1.5667498535476625,1,50,135.75969768268988,62,134.19110644585453,0.8064516129032258,0.6092999514509738,0.39070004854902624,-0.44437055125177577,0,119.0462957220152,0.8490500142797828,0,43,120.89899610821158,7,120.04838204360567,6.142857142857143,0.9999981410230279,1.8589769721859439e-06,-13.195482377527968,1,116.69521528691985,0.666001645848155,0,94,118.38055560714565,46,117.71311751636676,2.0434782608695654,0.999999999974703,2.5297004366699358e-11,-24.400335131658426,0,113.69313528621569,0.6651174973230809,1,15,115.36145752551965,42,114.69522042269818,0.35714285714285715,0.015450369922767604,0.9845496300772324,4.154551361985023
26,1,138.25952800363302,2.1828160723671317,1,88,141.4461346946191,96,139.26174983172677,0.9166666666666666,0.7901275366400697,0.20987246335993026,-1.3256943423241965,0,123.39933092310093,0.8650776750873774,1,45,125.26812889589928,92,124.40157882519998,0.4891304347826087,6.968860377654096e-09,0.9999999930311396,18.781814122496716,1,120.88174375565723,0.6993120787665248,0,42,122.60040794103406,67,121.89923551585525,0.6268656716417911,0.9881243592004625,0.011875640799537504,-4.421319248931924,1,117.86231303191744,0.9160169544629753,1,43,119.78127003693953,93,118.86397624248639,0.46236559139784944,0.00027230074216755273,0.9997276992578324,8.208331094914472
27,0,143.94724738644436,1.5152626233175397,1,24,146.4831425116863,90,144.9663664062973,0.26666666666666666,0.0073579705806700035,0.99264202941933,4.904585946616108,1,127.76930124219507,0.5987348537892103,1,14,129.3879954123404,57,128.78755863197148,0.24561403508771928,8.830965092521126e-08,0.9999999116903491,16.242416349998063,0,125.10084468172863,0.8826073610689491,0,14,126.9866018712055,57,126.10240201582201,0.24561403508771928,0.060934282775803816,0.9390657172241962,2.7350895112632276,1,122.28187072859146,0.6656433248426765,0,56,123.9504047210794,46,123.28400643309578,1.2173913043478262,0.9437765923337489,0.05622340766625109,-2.8205563007717385
28,1,148.98380404291674,1.68292017118074,1,43,151.68644846859388,93,150.0017449883744,0.46236559139784944,0.04039547719418801,0.959604522805812,3.167803416113075,0,131.88868104224093,1.015412944369018,1,14,133.90801655617543,57,132.89101743837819,0.24561403508771928,8.830965092521126e-08,0.9999999116903491,16.242416349998063,1,129.48699910589494,0.6824792819097638,0,54,131.17294268566184,31,130.48856197088026,1.7419354838709677,0.9999993825245194,6.174754806414954e-07,-14.297625859220135,0,126.45192827726714,1.4002853927668184,0,60,128.87101427000016,70,127.46965707442723,0.8571428571428571,0.30750963657353303,0.692490363426467,0.8117878971289721
29,0,154.18685834528878,1.1658339421264827,0,60,156.37311698682606,40,155.20557558722794,1.5,0.9718432287490867,0.028156771250913305,-3.5414066367237815,1,136.40844697598368,0.9492199304513633,0,46,138.37761160591617,40,137.42664155107923,1.15,0.8269069316269323,0.1730930683730677,-1.5638627340399571,0,133.67308826581575,0.8154543470591307,1,6,135.49261886137538,26,134.67514416808262,0.23076923076923078,0.4942641830271959,0.5057358169728041,0.022944274403027563,1,131.37210009759292,0.7649512155912817,0,69,133.1398021292407,61,132.37370167835616,1.1311475409836065,0.9257919364424548,0.07420806355754518,-2.5237767011814527
30,1,158.87331234500743,1.2659189198166132,0,14,161.1430345256813,8,159.87531175324693,1.75,0.8357174388197428,0.16428256118025716,-1.6267026848082,1,140.8780440010596,1.1988235847093165,0,6,143.0963085810654,8,141.89639976155013,0.75,0.44524984274585133,0.5547501572541487,0.2198822762931441,1,137.99283673800528,0.9328335537575185,0,25,139.94527523755096,37,139.0106240042951,0.6756756756756757,0.9840288703585146,0.015971129641485362,-4.12087254147041,1,135.6415133397095,0.6328192129731178,0,72,137.29316554777324,51,136.65916549484245,1.411764705882353,0.9927129004973373,0.007287099502662746,-4.914335905461263
31,0,163.64322000718676,1.1324595091864467,0,77,165.77977393753827,72,164.6453114647884,1.0694444444444444,0.9153911689913243,0.08460883100867571,-2.381312834405007,1,145.60046443459578,0.8490002367179841,0,72,147.4667691718787,51,146.61611362593248,1.411764705882353,0.9984857219743426,0.0015142780256573805,-6.491301078625013,0,142.44574792915955,1.0990226564463228,0,35,144.54804011783563,62,143.44735030015,0.5645161290322581,0.9549883762222725,0.04501162377772745,-3.054778406324909,0,139.79374885675497,0.7649741293862462,1,22,141.5620324194897,31,140.79596159840003,0.7096774193548387,0.30374336969302507,0.6962566303069749,0.8295351478332914
32,0,168.28005818463862,1.2156148999929428,0,12,170.49927802430466,3,169.28210579045117,4.0,0.8673292185411676,0.1326707814588324,-1.8775478940486572,1,149.96717865369283,0.7153235420119017,1,17,151.68525380152278,82,150.96914092591032,0.2073170731707317,1.6994849971752046e-11,0.9999999999830052,24.798110760589903,1,147.04867201927118,0.7494086911901832,0,62,148.8011918226257,43,148.0503293038346,1.441860465116279,0.9999996252277159,3.7477228414968527e-07,-14.79694686291741,0,144.06325691379607,0.6823848620988429,1,54,145.74831239436753,80,145.0648260996677,0.675,0.022616799573297652,0.9773832004267023,3.7661858225795437
33,1,172.99944612313993,1.0663703966420144,0,53,175.06908723711967,40,174.00098370411433,1.325,0.9426333394364298,0.057366660563570246,-2.7992140753568675,1,154.18700175289996,0.7987977478187531,0,33,155.98963871179149,25,155.18878387706354,1.32,0.940071321662297,0.05992867833770294,-2.7528005857016256,0,151.30157246487215,0.7488994563464075,0,40,153.05420723138377,15,152.30355211999267,2.6666666666666665,0.9999965553727254,3.4446272746064613e-06,-12.578691407866362,0,148.24974548141472,0.6987811154685915,0,14,149.9516001783777,7,149.25174884009175,2.0,0.8860510562731817,0.11394894372681826,-2.0510240885064075
34,0,177.5698882250581,1.3488487303256989,0,22,179.9386907410808,31,178.5878433927428,0.7096774193548387,0.5855457470860734,0.4144542529139266,-0.3455817117820565,0,158.48952355142683,1.132705632597208,0,68,160.62541061732918,63,159.49108246550895,1.0793650793650793,0.6150701790778846,0.38492982092211536,-0.46867533926498584,1,155.5543539968785,0.6316213852260262,0,41,157.19002042082138,7,156.55657226918265,5.857142857142857,0.9999993503553418,6.496446581874836e-07,-14.246839653607259,1,152.4529273887165,0.6153558974619955,1,19,154.08671884890646,37,153.4704981611576,0.5135135135135135,0.07660419273218644,0.9233958072678136,2.4894061588694814
35,1,182.43910259311087,0.866151453461498,1,24,184.30901740607806,69,183.44091079151258,0.34782608695652173,0.04924704007866698,0.950752959921333,2.96040499416588,0,163.1263593584299,1.1996903505641967,0,51,165.34569613658823,7,164.14439037791453,7.285714285714286,0.9999998889148546,1.1108514538054414e-07,-16.012968743100576,1,159.69061005068943,0.81615479150787,0,88,161.5270062328782,96,160.70873865042813,0.9166666666666666,0.9999992117080869,7.882919131308948e-07,-14.053396579259624,0,156.58848931873217,0.5977918410208076,1,24,158.19039572938345,90,157.59151430777274,0.26666666666666666,1.3252732899760034e-05,0.9999867472671002,11.231293517393627
36,0,186.80953592457809,1.4164473745040596,0,12,189.2454337759409,23,187.8272287712898,0.5217391304347826,0.5064863828313741,0.49351361716862585,-0.025946986953213885,1,167.84579746983945,0.5653829392977059,1,24,169.41509863291867,69,168.8480461621657,0.34782608695652173,2.9631111120309583e-08,0.9999999703688889,17.334440946591226,0,164.0269692945294,0.6490100342780352,0,28,165.6793531572912,41,165.02846697415225,0.6829268292682927,0.9877829465852733,0.012217053414726696,-4.392630187345242,0,160.69161271769553,0.7996534516569227,1,45,162.5099134852644,60,161.7092644777149,0.75,0.14133316490259407,0.8586668350974059,1.8042610198737172
37,1,191.7459574304521,0.9828472030349076,0,58,193.7483060732484,58,192.76389205479063,1.0,0.8406283568293782,0.1593716431706218,-1.6629108028044794,1,171.91522208997048,0.7826322105247527,1,15,173.70128857321106,19,172.91682999185286,0.7894736842105263,0.21761790152518612,0.7823820984748139,1.2796024585498758,1,168.1800873798784,0.5654003222007304,0,72,169.76498203072697,51,169.19795128819533,1.411764705882353,0.9999999385025393,6.149746073344428e-08,-16.60426989037597,1,165.01067141164094,0.799366241786629,0,53,166.81286392593756,40,166.01228563440964,1.325,0.9661947685159982,0.03380523148400188,-3.3527498694664097
38,1,196.2484026660677,0.749224987346679,1,26,198.0010109632276,84,197.25023456802592,0.30952380952380953,0.015718854513478653,0.9842811454865213,4.137050656954054,1,176.20139701780863,0.8332842797972262,0,74,178.0380721136462,60,177.2031534628477,1.2333333333333334,0.9766894058240212,0.023310594175978788,-3.7352607525878687,1,172.26597620383836,1.2325796473305672,1,28,174.50175348226912,82,173.26759832794778,0.34146341463414637,0.07327917416735097,0.926720825832649,2.5373759106998373,0,169.31401888933033,1.014824302168563,1,38,171.349276187364,43,170.33314344007522,0.8837209302325582,0.4963850926559511,0.5036149073440489,0.014459881320102055
39,1,200.50206123525277,1.0164456360507756,0,52,202.53782697790302,68,201.51946845208295,0.7647058823529411,0.5252149162322012,0.4747850837677988,-0.10094529665654657,1,180.53780643455684,0.5818759829271585,1,28,182.1228942705784,82,181.53944120067172,0.34146341463414637,8.180722765871451e-10,0.9999999991819277,20.92407042472504,0,177.00233442080207,0.699468128150329,0,9,178.72130556893535,7,178.0202658844646,1.2857142857142858,0.9842707313077205,0.015729268692279526,-4.136377767936118,0,173.8503485827241,1.133317188359797,0,77,176.00268365535885,72,174.86810147878714,1.0694444444444444,0.8826692921924819,0.1173307078075181,-2.0179540928835196
40,0,212.06046856706962,0.9827405363321304,0,71,214.06234945659526,69,213.07772131450474,1.0289855072463767,0.8831792959596991,0.11682070404030083,-2.0228879178691117,1,191.64600440324284,0.698447288479656,1,87,193.36416330421343,89,192.66408836096525,0.9775280898876404,0.055381262366035466,0.9446187376339645,2.836540081743141,1,188.24434063979425,1.1155532307457179,1,15,190.3789706188254,56,189.2618809924461,0.26785714285714285,0.09533971488857929,0.9046602851114207,2.2501130383592973,1,185.50926558393985,0.6820893557742238,0,32,187.21002398408018,16,186.52673759078607,2.0,0.977903850294243,0.022096149705757018,-3.7900079807328177
41,1,216.56248713564128,0.7823351239785552,1,55,218.3649692304898,95,217.58056872314773,0.5789473684210527,0.1109934510983751,0.8890065489016249,2.0806334016221952,0,195.86490345280617,1.0321738398633897,1,87,197.90041121980175,85,196.8665583669208,1.0235294117647058,0.21440422740183385,0.7855957725981662,1.2985792295519019,0,192.8800114095211,1.015917043434456,0,15,194.9149850527756,42,193.8975027743727,0.35714285714285715,0.5290249580531394,0.4709750419468606,-0.1162305073146332,0,189.71057094726712,0.6989419057499617,0,95,191.4126788789872,16,190.71253835549578,5.9375,0.9999998371801216,1.6281987831845978e-07,-15.630621125318765
42,1,220.86524320603348,1.1162382680922747,0,12,223.00099200033583,9,221.883108694572,1.3333333333333333,0.7895254992462993,0.21047450075370067,-1.322067621920024,0,200.40144450427033,0.7657824261114001,0,40,202.18688125885092,15,201.4192787827924,2.6666666666666665,0.9998841389759664,0.00011586102403355219,-9.063003286055759,1,197.4156058926601,0.5823231928516179,0,56,199.00216770451516,46,198.41782890586182,1.2173913043478262,0.99999585731233,4.142687669962807e-06,-12.394161642423944,1,193.91348697803915,0.5655603222548962,0,82,195.48170804209076,40,194.91502218856476,2.05,0.999849769696157,0.00015023030384298292,-8.803190840783751
43,1,225.50209718593396,0.7992963157594204,0,33,227.3207416574005,25,226.5198492917698,1.32,0.8876904887485791,0.11230951125142086,-2.0673645803444107,1,204.6871437774971,0.6320899287238717,1,50,206.32334274495952,62,205.68930358090438,0.8064516129032258,0.004126548825787779,0.9958734511742122,5.486178770225585,0,201.50232355645858,0.5822157361544669,0,62,203.10403322638012,17,202.5201025265269,3.6470588235294117,0.9999999953740537,4.62594630262591e-09,-19.191584876311854,1,197.9833090303,0.6988150908146054,1,37,199.68494762852788,54,198.9850137224421,0.6851851851851852,0.0986959583411775,0.9013040416588225,2.2117986531303124
44,0,229.8209113366902,0.9994789133779705,0,55,231.82409514021128,60,230.82268397929147,0.9166666666666666,0.7612724172442773,0.23872758275572267,-1.1596681857948288,0,208.82355153514072,0.7505926915910095,0,50,210.59309297497384,7,209.84161929530092,7.142857142857143,0.9999998420177426,1.5798225736452224e-07,-15.660782947404,0,205.60443085618317,0.5491206119768322,0,80,207.15754475351423,60,206.60636665928178,1.3333333333333333,0.9999999775205557,2.247944426615794e-08,-17.61066451100337,1,202.1856198264286,0.6154530826024711,0,66,203.80425039166585,59,203.1876255555544,1.11864406779661,0.9109493571500514,0.08905064284994854,-2.325282076632503
45,1,234.3242000292521,0.748984394595027,0,32,236.07677198085003,16,235.32585849892348,2.0,0.9423810110111754,0.05761898898882452,-2.7945574797706585,0,213.09494324726984,1.364209131570533,0,71,215.4625637382269,69,214.0964993960224,1.0289855072463767,0.313951770874506,0.686048229125494,0.781708551932149,1,209.65778080304153,1.065948075382039,1,17,211.74343891092576,82,210.6760010572616,0.2073170731707317,0.002441137144345129,0.9975588628556549,6.012847183899276,1,206.30500081181526,0.5485169575549662,1,10,207.85656093084253,44,207.30696545448154,0.22727272727272727,0.0042371145286908,0.9957628854713092,5.459626660558114
46,1,238.57713445019908,0.6663959175348282,1,54,240.26317521510646,31,239.59517100057565,1.7419354838709677,0.9767621780100953,0.023237821989904678,-3.7384619923165197,0,217.96310003474355,1.0323535930365324,1,55,220.0159036112018,60,218.98129974561743,0.9166666666666666,0.04944103888810503,0.950558961111895,2.956269365647073,0,214.24369945423678,0.5149284009821713,0,41,215.76246074563824,22,215.24589955387637,1.8636363636363635,0.9999918008475447,8.199152455325064e-06,-11.711471568956618,1,210.35830848710611,0.5655634826980531,1,55,211.9427077304572,95,211.3759744693525,0.5789473684210527,0.0017997245512844096,0.9982002754487156,6.318320306852822
47,1,242.76311101741157,0.6989205724094063,1,15,244.46521894913167,56,243.7647070675157,0.26785714285714285,0.062320838822011004,0.937679161177989,2.711111983454159,1,222.51648138905875,0.7328014746308327,0,56,224.26867605675943,46,223.53411023551598,1.2173913043478262,0.9415182731590369,0.058481726840963096,-2.7787794127188503,0,218.26354262256064,0.6985401278361678,0,78,219.98194764717482,65,219.28179290145636,1.2,0.9999999015422236,9.845777639395344e-08,-16.133637948265378,0,214.4440839283634,0.6491321083158255,1,50,216.1124302665703,7,215.46216314542107,7.142857142857143,0.9998518428333303,0.0001481571666697538,-8.81708874255552
48,0,246.96609065309167,0.8322452669963241,1,62,248.80158648942597,16,247.9677384563256,3.875,0.9974659084031898,0.0025340915968101586,-5.975382742771718,0,226.7691752172541,0.8658970333635807,0,71,228.65453892527148,64,227.7867736441549,1.109375,0.7578159392559073,0.24218406074409274,-1.140742513306903,0,222.4825609808322,1.0493388837203383,1,7,224.5354554215446,54,223.48445648769848,0.12962962962962962,0.011662110879267606,0.9883378891207324,4.439679431823672,1,218.61428646487184,1.1158325397409499,0,45,220.74904246861115,40,219.63204094092362,1.125,0.8640307905459098,0.13596920945409016,-1.8491799463443859
49,0,251.30254550208338,0.9995843949727714,0,71,253.3217743493151,64,252.32059311424382,1.109375,0.9231394910893977,0.07686050891060225,-2.485788144642972,1,231.15596450585872,0.6478528978768736,1,25,232.82409711554646,37,232.1747319207061,0.6756756756756757,0.009206755817881884,0.9907932441821181,4.678568336444704,0,227.0357953722123,0.43214160297065973,0,96,228.47157391463406,89,228.03771932353266,1.0786516853932584,0.9999999807197357,1.9280264233620203e-08,-17.764183823514372,1,223.25018400000408,0.6484399598557502,0,41,224.90138860302977,7,224.25186972902156,5.857142857142857,0.9991963739654574,0.0008036260345425964,-7.125572579043242
50,0,255.82212852220982,0.8987630219198763,0,56,257.72411287855357,59,256.82380239944905,0.9491525423728814,0.7954793173594493,0.20452068264055065,-1.3582757399163026,1,235.32467647385783,0.6156142679974437,1,40,236.9597890211735,93,236.3426430982072,0.43010752688172044,8.154887876088424e-10,0.9999999991845112,20.927233442246642,0,230.97205095202662,0.698843140155077,0,60,232.6912385940086,61,231.9905319469981,0.9836065573770492,0.9999852256216198,1.4774378380104705e-05,-11.1226012934822,0,227.40297062834725,0.829675784567371,1,53,229.2379892298486,57,228.40714840777218,0.9298245614035088,0.5615179949439764,0.43848200505602364,-0.24732504818102224
51,0,260.2254472000059,0.915665349457413,0,95,262.16037221136503,16,261.24308157735504,5.9375,0.9999232047163348,7.679528366522117e-05,-9.474290532072882,0,239.46075870050117,0.9328734548762441,1,22,241.41319917538203,31,240.47869925084524,0.7096774193548387,0.03142614810532485,0.9685738518946752,3.4281844452475685,1,235.1914596313145,0.6658570533618331,0,98,236.8771294329781,73,236.20947998412885,1.3424657534246576,0.999999999314231,6.857689752591422e-10,-21.10048031499617,1,231.7392121439334,0.7328354499768466,0,12,233.49117056443356,9,232.75712543493137,1.3333333333333333,0.7874775966239225,0.21252240337607758,-1.3097875111040913
52,1,264.6614153722767,0.7991853032726794,0,94,266.46406852896325,46,265.6629865334835,2.0434782608695654,0.9986290256364592,0.0013709743635408223,-6.590861662663015,1,243.91369912633672,0.7992026859428734,0,98,245.7324893756304,73,244.9316467877943,1.3424657534246576,0.9992459873227524,0.0007540126772475973,-7.189347079684153,0,239.37780597642995,0.5491861922200769,0,28,240.9456592379138,18,240.39533368707635,1.5555555555555556,0.9997465763692165,0.0002534236307834668,-8.280194583809555,0,235.99173570028506,0.6819554299581796,0,62,237.67696658847854,16,236.99392592348158,3.875,0.999919598328914,8.040167108597782e-05,-9.428395192440412
53,0,268.9638921339065,1.0656454579439014,0,43,271.03293512412347,7,269.9657295665238,6.142857142857143,0.9917893649878077,0.008210635012192276,-4.7940804843973295,1,248.2330493759364,0.9494530169758946,0,45,250.18571898690425,40,249.23466043826193,1.125,0.7705955294631286,0.22940447053687138,-1.2116769383433796,1,243.44729459658265,0.9827717463485897,1,24,245.43284639320336,69,244.44899375759996,0.34782608695652173,0.16744217101430647,0.8325578289856935,1.60386463971151,0,240.17794179869816,0.8147068899124861,0,28,241.9965862701647,18,241.18057844159193,1.5555555555555556,0.9354071957412333,0.06459280425876665,-2.6728789225499945
54,0,273.53376692696474,0.765180351678282,0,40,275.30255735409446,15,274.53572090296075,2.6666666666666665,0.9766916105597083,0.02330838944029168,-3.7353575952590456,1,252.6864200241398,0.4989793577697128,1,54,254.20500472281128,78,253.7043226484675,0.6923076923076923,3.609648400548782e-05,0.9999639035159945,10.229278996203101,0,247.93304767739028,0.5328559142071754,0,38,249.48492700629868,43,248.95090012880974,0.8837209302325582,0.9992644090074421,0.0007355909925578914,-7.214100448664055,0,244.49769145576283,0.8321220076177269,0,71,246.33260655100457,64,245.49936414789408,1.109375,0.9130655300866801,0.08693446991331993,-2.351653037029243
55,1,277.80375932971947,0.6648907316848636,1,43,279.47187890228815,97,278.80535933049396,0.44329896907216493,0.028246747528218763,0.9717532524717812,3.5381235975321625,0,256.70565558737144,0.9492740540299565,1,7,258.67487987154163,54,257.723604433937,0.12962962962962962,2.3784153424522003e-08,0.9999999762158466,17.554246276742145,1,251.98638063669205,0.581464723451063,0,53,253.5874949481804,55,253.00482805119827,0.9636363636363636,0.9999510706883276,4.892931167240776e-05,-9.925084989851893,0,248.83428299613297,0.8657919471152127,1,12,250.7192149013281,23,249.85216310201213,0.5217391304347826,0.22311219812907324,0.7768878018709268,1.2476211652485805
56,1,281.97250211262144,0.6649839663878083,0,82,283.64149042614736,40,282.97480295295827,2.05,0.9971963116356216,0.002803688364378404,-5.874011829591226,0,261.1755793285556,0.7829984328709543,1,54,262.9783340159338,80,262.1932129156776,0.675,1.6730516797847095e-05,0.9999832694832022,10.998259422298913,0,256.08886798564345,0.5658198778983206,0,60,257.6738965625409,40,257.106938511366,1.5,0.9999995753994688,4.2460053121040367e-07,-14.672116611993093,1,253.22024581534788,0.5485777971334755,1,15,254.77163921832107,42,254.22194142104127,0.35714285714285715,0.015450369922767604,0.9845496300772324,4.154551361985023
57,1,286.14227521652356,1.1328529906459153,1,42,288.2788097891025,67,287.1440174395684,0.6268656716417911,0.2959310620944504,0.7040689379055496,0.8667497456557012,0,265.4782141146716,0.749521283665672,1,24,267.2474766408559,90,266.49611081322655,0.26666666666666666,9.228395825289226e-12,0.9999999999907716,25.408735882586548,0,260.17451147641987,0.59603460598737,0,14,261.7762981832493,7,261.17917241645046,2.0,0.9967184008608309,0.0032815991391691632,-5.716137437572234,0,257.2728060337249,0.8492878417018801,1,14,259.1412847964093,57,258.29082717653364,0.24561403508771928,0.0008389012313108068,0.9991610987686892,7.08257832703896
58,0,290.77850341866724,0.7660218335222453,0,53,292.5479942904785,15,291.78000267851166,3.533333333333333,0.9940222491770001,0.005977750822999876,-5.1137152092261715,1,269.74784661643207,0.5991378168109804,1,15,271.35020576789975,56,270.7494323947467,0.26785714285714285,1.8447709526636658e-07,0.9999998155229047,15.505740341593075,0,264.2775408504531,0.46651040646247566,0,78,265.74660019623116,34,265.2790207522921,2.2941176470588234,0.9999999994780235,5.219764431834084e-10,-21.373398656543365,0,261.64251758717,1.0814317360054702,1,58,263.7446683435701,58,262.66202692803927,1.0,0.731919691332949,0.268080308667051,-1.0043842018213833
59,1,295.04793759901077,0.6990331651177257,1,14,296.7509324448183,57,296.049803476315,0.24561403508771928,0.051675177758154556,0.9483248222418454,2.9097195375756333,1,273.8502818173729,0.7662177842576057,0,62,275.62020291155204,43,274.8524301638827,1.441860465116279,0.997636781555405,0.00236321844459497,-6.0453648260417365,0,268.2471104187425,0.5318718149792403,0,62,269.79837898211554,17,269.26540059875697,3.6470588235294117,0.9999999953740537,4.62594630262591e-09,-19.191584876311854,0,266.2452496769838,0.58293158817105,0,86,267.8310142541304,59,267.246785282623,1.4576271186440677,0.9977266093038657,0.0022733906961343586,-6.084206884437565
60,0,306.2738292438444,1.1157207370270044,1,7,308.4084615933243,54,307.29086273210123,0.12962962962962962,0.03311247861377531,0.9668875213862247,3.3741719628782323,1,285.1421491918154,0.9816679435316473,0,14,287.1433446491137,8,286.1601110755,1.75,0.9307072236489269,0.06929277635107307,-2.597604089279462,0,279.3055029355455,0.4649297639261931,0,56,280.78916771919467,59,280.32309701666236,0.9491525423728814,0.999962713525943,3.728647405703362e-05,-10.196842635726723,0,277.3375108493492,0.7321164372842759,0,71,279.0876575161237,69,278.3544092264492,1.0289855072463767,0.8081901418136659,0.19180985818633414,-1.4382927954747167
61,1,310.9090073714033,0.8323080819100142,0,46,312.7451396523975,40,311.91073063132353,1.15,0.8866551832763142,0.11334481672368582,-2.0570215139899544,0,289.6444470693823,0.749047999503091,0,14,291.4140770030208,7,290.6628289036453,2.0,0.9517586204169166,0.048241379583083444,-2.9820943023272726,0,283.29064386803657,0.6984484735876322,0,59,285.0088138305582,65,284.30921770236455,0.9076923076923077,0.9999601580844909,3.984191550904566e-05,-10.130551203648139,0,281.58882275107317,0.7998193777166307,0,87,283.4079669758212,76,282.6070216719527,1.144736842105263,0.959562826884299,0.04043717311570106,-3.1667283035424316
62,0,315.24531762767583,0.7488038514275104,0,51,316.9972788137384,7,316.2469986160286,7.285714285714286,0.9964678163130932,0.0035321836869067324,-5.642300554530945,1,293.9138476694934,0.598754211794585,1,15,295.5168104756158,42,294.9157672752626,0.35714285714285715,4.014881998071207e-05,0.9999598511800193,10.12287735864613,1,287.50957886804827,0.7320172768086195,0,58,289.24513273872435,6,288.51188365905546,9.666666666666666,0.9999999974496802,2.5503198050437324e-09,-19.787047069346762,1,285.9085186799057,0.6157201444730163,1,40,287.5270951217972,93,286.91024905093946,0.43010752688172044,0.0001549629051966761,0.9998450370948033,8.77216981608552
63,1,319.4983065670822,0.8494739157613367,0,6,321.36758651561104,8,320.5160167964641,0.75,0.6853529905559683,0.31464700944403173,-0.7784826146745846,1,298.0166534385644,0.6822892571799457,0,82,299.7186215184629,40,299.0346955198329,2.05,0.9999993475635072,6.52436492783754e-07,-14.242551379116682,1,291.74625965277664,0.7818721113726497,1,26,293.5310007035732,84,292.74802439427003,0.30952380952380953,0.02910442041547534,0.9708955795845247,3.507328856507701,0,290.0284278630279,0.8164080262649804,0,60,291.86372656328604,40,291.04602984525263,1.5,0.9906997806088229,0.0093002193911771,-4.668373552198181
64,1,323.86775658954866,0.6981182016897947,0,46,325.5865570711903,36,324.88664489332587,1.2777777777777777,0.918888623668535,0.08111137633146498,-2.427341695409043,0,302.2191289754119,1.066288618836552,1,58,304.28850223729387,58,303.2207230501808,1.0,0.24402612075860985,0.7559738792413901,1.1307315524617227,1,296.0320138398092,0.6656776950694621,0,74,297.7173292711377,60,297.05052248900756,1.2333333333333334,0.9999998503479729,1.4965202710612946e-07,-15.714952907440033,0,294.36411708197556,0.7658859321381897,0,51,296.1333349661436,7,295.3663855274208,7.285714285714286,0.9998772250760429,0.00012277492395709006,-9.005034982945773
65,1,328.0871079850476,0.7653087468352169,0,97,329.85617574560456,61,329.0889414672274,1.5901639344262295,0.9960111024243574,0.003988897575642584,-5.52024350864154,0,306.7893810526002,0.7652980801649392,1,60,308.57453494286165,70,307.8076965166256,0.8571428571428571,0.00643055878608545,0.9935694412139146,5.040242517642312,1,300.218315938022,0.5464211541693658,0,42,301.77017551427707,39,301.22259998926893,1.0769230769230769,0.9998942160900302,0.00010578390996986598,-9.154006340279786,0,298.6335200527683,0.8998079604934901,0,56,300.5361372982152,59,299.63519788044505,0.9491525423728814,0.609644865229779,0.39035513477022105,-0.4458196727299721
66,0,332.35690167173743,1.3152973095420748,0,28,334.69162101391703,41,333.3751665679738,0.6829268292682927,0.5139829306964676,0.48601706930353233,-0.055946310834546834,0,311.07542363461107,0.749595160363242,0,78,312.8445893705357,34,312.0933124318253,2.2941176470588234,0.9999997342606087,2.657393913037169e-07,-15.140749474617241,0,304.2710977860261,0.7490958019625396,0,53,306.0396013983991,57,305.28929868224077,0.9298245614035088,0.9999313922133762,6.860778662377595e-05,-9.587035911898475,1,303.03772564441897,1.1324911140836775,0,15,305.189163136296,19,304.05541137978435,0.7894736842105263,0.5117242877716373,0.48827571222836275,-0.046905749165799704
67,0,337.1929059526883,0.8992453922983259,0,78,339.09584359335713,65,338.19485676824115,1.2,0.9583295974590762,0.0416704025409238,-3.135400660655113,0,315.3451292226091,0.7487039007246494,0,60,317.1135486867279,40,316.36319461255334,1.5,0.9984904965415523,0.0015095034584477183,-6.494463873792017,1,308.54060189262964,0.6323151141405106,0,12,310.19200521172024,9,309.5584804182872,1.3333333333333333,0.9913900069261236,0.00860999307387644,-4.746184491764369,1,307.69010990229435,0.5823563782032579,1,14,309.2916769545991,57,308.7082238846924,0.24561403508771928,0.0008389012313108068,0.9991610987686892,7.08257832703896
68,0,341.5962827047333,0.8659602433908731,0,68,343.48248670902103,63,342.614309378434,1.0793650793650793,0.9055340701585711,0.09446592984142892,-2.2602856636976383,0,319.6146021191962,0.748682567384094,1,28,321.36630019405857,41,320.6161823668517,0.6829268292682927,0.005709080842955405,0.9942909191570446,5.159971801546208,1,312.6930392861832,0.5989620143081993,0,53,314.29515626467764,40,313.6950280277524,1.325,0.9999961230312183,3.876968781733313e-06,-12.460453074502531,1,311.79237127583474,0.6664413497783244,0,58,313.4617700588424,6,312.7939542888198,9.666666666666666,0.9999725558673179,2.744413268212326e-05,-10.50333071398845
69,0,345.9822704126127,0.9491871404461563,0,38,347.93514071498066,43,346.9840359443333,0.8837209302325582,0.7172905522211258,0.2827094477788742,-0.9310613077920222,1,323.8674677994568,0.9458216081839055,0,69,325.81939350883476,61,324.8720481467899,1.1311475409836065,0.8305938106493197,0.16940618935068033,-1.5898415610571837,0,316.79608130222186,0.5326694450341165,0,77,318.3478816188872,72,317.81396851921454,1.0694444444444444,0.9999995591295119,4.408704881164589e-07,-14.634514241501188,1,315.96189667633735,0.6680445107631385,0,97,317.6319718051236,61,316.9634164792951,1.5901639344262295,0.9995847736416797,0.00041522635832029676,-7.78627143210854
70,0,350.43534476449713,0.8824884472414851,0,62,352.32139548496343,17,351.4370937035419,3.6470588235294117,0.9972207822738218,0.0027792177261781303,-5.882802697416946,1,328.32041533640586,0.549099673749879,1,43,329.87323372764513,93,329.32215992966667,0.46236559139784944,2.345714067431004e-09,0.9999999976542859,19.87067597268794,1,320.8484977178741,0.6161211323924363,0,97,322.46752729592845,61,321.85025179269724,1.5901639344262295,0.9999999998762581,1.2374193987635936e-10,-22.812822848789455,0,320.1329616326839,0.6138534771744162,0,78,321.7497543701902,34,321.1347828679718,2.2941176470588234,0.9998935190706182,0.00010648092938176661,-9.147438169088169
71,0,354.82190175680444,0.9982712091878057,1,7,356.84039381332695,54,355.84063164074905,0.12962962962962962,0.03311247861377531,0.9668875213862247,3.3741719628782323,1,332.3734662216157,0.6320535831619054,0,41,334.00948504079133,7,333.375165382633,5.857142857142857,0.9999962400862741,3.7599137259355974e-06,-12.491110786134817,1,324.96817974047735,0.5493244638200849,0,66,326.5366872244049,59,325.9861420192756,1.11864406779661,0.9999984172766536,1.5827233463956932e-06,-13.356361974998956,0,324.25080819777213,0.848984434036538,1,37,326.1030108060222,52,325.25289096403867,0.7115384615384616,0.136289710346585,0.863710289653415,1.846454556508502
72,1,359.3416495176498,0.8123598271049559,0,56,361.1771338970866,46,360.3631878965534,1.2173913043478262,0.9283633464712175,0.0716366535287824,-2.5618163295283405,0,336.5092675590422,0.9321986893191934,0,9,338.4616456143558,7,337.5274510725867,1.2857142857142858,0.7722685597574778,0.22773144024252223,-1.2211653238443934,1,329.03784218779765,0.5821525261271745,0,15,330.639359067427,19,330.05606915801764,0.7894736842105263,0.9820806958443391,0.01791930415566087,-4.003794903778946,1,328.6042096214369,0.616175650851801,1,50,330.2392633042764,62,329.62190325791016,0.8064516129032258,0.22620349439611653,0.7737965056038835,1.2298739145442636
73,1,363.6780127121601,0.8326581069268286,0,62,365.5303302835673,43,364.69601884274743,1.441860465116279,0.9699890223593225,0.030010977640677543,-3.4757215181928696,1,340.96232215780765,0.6320626696106046,1,19,342.5978538657073,37,341.9640205288306,0.5135135135135135,0.0011218170330078436,0.9988781829669922,6.791683110624145,1,333.1400814380031,0.6164359964895993,0,16,334.77589917066507,10,334.15825033420697,1.6,0.9971023914012295,0.002897608598770485,-5.840967688496552,1,332.74027999606915,0.5823239830788225,0,94,334.34188536950387,46,333.758434670046,2.0434782608695654,0.9999528681030538,4.7131896946189495e-05,-9.962513435601357
74,0,368.0308701356407,0.9153090035542846,0,50,369.9662933200598,7,369.04897858714685,7.142857142857143,0.9960742838577096,0.0039257161422904625,-5.5362730457642435,1,345.0979405818507,0.9487205722834915,1,53,347.05053947656415,55,346.1000431012362,0.9636363636363636,0.14954299788488112,0.8504570021151189,1.7381898918011713,1,337.27627586224116,0.8658022184390575,1,10,339.14473368693143,44,338.2778185789939,0.22727272727272727,0.14165905532533152,0.8583409446746685,1.801578240274901,0,336.8432275922969,0.7155491220764816,0,59,338.57821059878916,65,337.8614636489656,0.9076923076923077,0.47841994075349115,0.5215800592465089,0.086373895964701
75,0,372.46655267803,0.9157143370248377,0,60,374.3858320536092,61,373.46856314805336,0.9836065573770492,0.8316302790031063,0.1683697209968938,-1.5972256842735673,0,349.55093434103765,1.215975196333602,0,96,351.771280502202,89,350.5530601690989,1.0786516853932584,0.5825212643134124,0.41747873568658755,-0.3331320795260405,1,341.64580371184275,0.7490349626168609,0,50,343.39777595968917,62,342.64755028043874,0.8064516129032258,0.9995879927070451,0.0004120072929549141,-7.794057415233256,1,341.0789495620411,0.582732082111761,1,54,342.6808069848921,78,342.0969730752986,0.6923076923076923,0.032269169038782075,0.9677308309612179,3.400841725957733
76,0,376.8861392142717,0.8489334711339325,0,9,378.73886606958695,7,377.88830612855963,1.2857142857142858,0.7665881466254107,0.2334118533745892,-1.1891451863294626,1,354.27129847742617,1.0826576128602028,1,42,356.3740999007132,39,355.2893919167109,1.0769230769230769,0.6317216342983094,0.36827836570169054,-0.5396097643014625,1,345.8988977379631,0.699208177626133,0,45,347.60085120028816,40,346.9004692940507,1.125,0.9999514485334039,4.85514665961274e-05,-9.932837603084744,1,345.1814918247983,0.5838674898259342,1,43,346.7674804017879,97,346.1830866895616,0.44329896907216493,0.00013115241350736273,0.9998688475864926,8.93901928815739
77,0,381.23962715640664,0.9321828866377473,0,96,383.1754781927448,89,382.2412615274079,1.0786516853932584,0.943851810139432,0.05614818986056807,-2.8219747299412163,1,358.8745303207543,0.7344417714048177,0,94,360.62749101314694,46,359.892010623822,2.0434782608695654,0.9999999042801121,9.571988791171761e-08,-16.161839649188728,1,350.1015376204159,1.4665349004790187,0,55,352.58749178773724,95,351.1197476028465,0.5789473684210527,0.9780331120212198,0.02196688797878018,-3.796007298637966,1,349.2691402544733,0.7321535730734468,1,52,351.0197171436157,68,350.28643527347594,0.7647058823529411,0.1245518617730822,0.8754481382269178,1.9500137236291857
78,0,385.6759836743586,0.8823509658686817,0,45,387.56143548106775,42,386.6775082182139,1.0714285714285714,0.8539388122253284,0.14606118777467164,-1.7658339145137085,0,363.12875461857766,0.9155776456464082,0,78,365.0627504445147,65,364.1453950202558,1.2,0.9616373424595239,0.03836265754047612,-3.2215528701351195,1,355.08861396089196,0.6496306762564927,0,32,356.75732889189385,16,356.10663312859833,2.0,0.9999489192313804,5.108076861955704e-05,-9.882051397471868,1,353.520353785716,1.0992517923004925,0,58,355.6226617768407,58,354.5223686012905,1.0,0.731919691332949,0.268080308667051,-1.0043842018213833
79,1,390.061778197065,0.8654502185527235,0,42,391.9309040713124,39,391.06377483997494,1.0769230769230769,0.8488348278808667,0.15116517211913327,-1.7254915242779187,0,367.56357987690717,0.9480750411748886,1,53,369.51555970986374,57,368.5659601248335,0.9298245614035088,0.07535704031692347,0.9246429596830765,2.5071703178967897,0,359.2581085464917,1.0494344886392355,0,54,361.32638590666465,80,360.2757848002948,0.675,0.9975651284855905,0.0024348715144094928,-6.01542344936138,1,358.1236733328551,0.5328420870937407,1,26,359.659136260394,84,359.1251378271263,0.30952380952380953,5.77477311863861e-05,0.9999422522688136,9.759368746751292
80,1,401.4542429447174,0.731713869376108,1,19,403.20464126602747,37,402.47172996401787,0.5135135135135135,0.37098789048663205,0.629012109513368,0.5279810866466821,1,379.0217920085415,0.5989355454221368,1,52,380.64061931474134,68,380.0396089043934,0.7647058823529411,0.000833745339781089,0.9991662546602189,7.088748457119285,1,370.8335236874409,0.8151817542966455,0,52,372.66723305382766,68,371.850866508903,0.7647058823529411,0.9993962908047136,0.0006037091952863635,-7.4118140492274485,0,369.1825023929123,0.882821484701708,0,9,371.08334146486595,7,370.1993296588771,1.2857142857142858,0.7523700668792237,0.24762993312077627,-1.1112928865551424
81,1,405.70599415549077,0.7656030678190291,0,75,407.47525905189104,70,406.707703193184,1.0714285714285714,0.9132847463505478,0.08671525364945225,-2.3544179075811473,1,383.1412855866365,0.6470588236115873,1,37,384.8094663936645,54,384.1605519645382,0.6851851851851852,0.0009214203175341718,0.9990785796824658,6.988672409898561,1,375.1685733012855,0.5998935704119503,1,43,376.7712354653049,97,376.1702918203082,0.44329896907216493,0.4173977781982584,0.5826022218017416,0.33346498644212885,1,373.58445652714,0.5656863467302173,1,24,375.1689023876097,69,374.60208418848924,0.34782608695652173,0.0006138287852287538,0.9993861712147712,7.395180502867138
82,1,409.975122557953,0.6652059913612902,0,16,411.643388698576,10,410.9773949540686,1.6,0.8393766853010127,0.16062331469898722,-1.6535976116320599,0,387.3102883200627,0.6321274593938142,0,62,388.96217400976457,16,388.3284137593582,3.875,0.9999999265455721,7.34544278859853e-08,-16.426600578332618,1,379.27132099610753,0.7155238380655646,0,46,380.9897015267052,40,380.27297749067657,1.15,0.9999646009274284,3.539907257156477e-05,-10.248789537011968,0,377.67024065973237,0.548394488170743,0,78,379.2218762356788,65,378.67238308046944,1.2,0.9702465369702455,0.02975346302975441,-3.4846046714501093
83,1,414.1462357121054,0.5821363287977874,1,40,415.7466499740258,93,415.16322416323237,0.43010752688172044,0.029716497327808677,0.9702835026721913,3.4858859424131783,1,391.46296749147587,0.7990592785645276,0,75,393.2820402102079,70,392.4810320911929,1.0714285714285714,0.5603405854448442,0.4396594145551557,-0.24254441780634517,0,383.4910508606117,0.46633657929487526,0,53,384.9764140152838,15,384.5089108182583,3.533333333333333,0.999999943332592,5.66674080401894e-08,-16.686066548920266,0,381.72307860665023,0.8149210133124143,1,7,383.54116643592715,54,382.7250815704465,0.12962962962962962,0.0003895277428088706,0.9996104722571911,7.8501858648378535
84,0,418.2476895793807,0.8995195652823895,1,15,420.15072598541155,42,419.24922557990067,0.35714285714285715,0.19544798315651146,0.8045520168434885,1.4149913484873509,0,395.7826630251948,0.8987973921466619,1,12,397.684852023609,23,396.7841713714879,0.5217391304347826,0.020349875506745385,0.9796501244932546,3.8741206978308447,0,387.4770249784924,0.6821703435853124,0,43,389.17855335446075,7,388.4952835536096,6.142857142857143,0.9999996546625792,3.453374207214421e-07,-14.878743521461706,0,386.0427938934881,1.015534623293206,0,45,388.0775067959912,42,387.0608897029888,1.0714285714285714,0.8151512641636058,0.18484873583639413,-1.4838358497225754
85,0,422.650826923782,1.015643265331164,0,59,424.6865496044047,65,423.66885399259627,0.9076923076923077,0.7541515390169254,0.24584846098307453,-1.1208779940877762,0,400.18497469020076,0.5821383041329682,0,62,401.7712109712884,17,401.18697370332666,3.6470588235294117,0.9999998921053418,1.0789465816539194e-07,-16.042110365284806,1,391.67940886109136,0.599204582395032,0,19,393.2812919630669,37,392.68091799737886,0.5135135135135135,0.9024863271779815,0.09751367282201855,-2.2251609379070714,0,390.57861198158935,0.6988474859390408,0,41,392.28063260461204,22,391.58068961207755,1.8636363636363635,0.9876965020027232,0.012303497997276803,-4.385491854379666
86,1,427.18670466635376,0.6658673246856779,1,17,428.872355110012,82,428.20488659944385,0.2073170731707317,0.007346642249973612,0.9926533577500264,4.906138145144826,1,404.2710096873343,0.6156051813159138,1,4,405.8905785246752,22,405.2730173917953,0.18181818181818182,0.0018199641558805935,0.9981800358441194,6.307116850355681,0,395.78257848205976,0.48163614072836936,0,50,397.2673166487366,7,396.78449255693704,7.142857142857143,0.9999999621792179,3.782078201007081e-08,-17.09040705895227,1,394.7817567533348,0.96439228230156,0,87,396.74998666648753,89,395.7844704333693,0.9775280898876404,0.6882588218685121,0.31174117813148794,-0.7919916755006631
87,1,431.3732813326642,0.8819069161545485,0,53,433.2749915160239,55,432.3915399077814,0.9636363636363636,0.8038469068805164,0.1961530931194836,-1.4105133950352857,0,408.3910385740455,1.0823869954328984,1,37,410.47683771909215,52,409.3926496366039,0.7115384615384616,0.001985906359666112,0.9980140936403339,6.219691983802952,0,399.76865966175683,0.5489215007983148,0,58,401.33693010848947,58,400.7869217924308,1.0,0.999983261310498,1.673868950206809e-05,-10.99777104255788,0,399.25115545722656,0.9490950910840183,1,28,401.20321825309657,41,400.2530256800819,0.6829268292682927,0.1782018090117471,0.8217981909882529,1.5285781886008232
88,1,435.77599754114635,1.3158037790562958,0,69,438.0950902104378,61,436.7776844552718,1.1311475409836065,0.9276724274432218,0.07232757255677828,-2.5514732631738846,1,412.97733727493323,0.632607459789142,0,53,414.6293426682241,40,413.9950573807582,1.325,0.9825217169220061,0.01747828307799393,-4.029163303915985,0,403.83765445440076,0.4824752523563802,0,71,405.3393435415346,69,404.8557301159017,1.0289855072463767,0.9999982323826047,1.7676173953958248e-06,-13.245876254867978,1,403.7047429943923,0.6815820962656289,0,16,405.40572816017084,10,404.7229936681688,1.6,0.8674847758742296,0.1325152241257704,-1.8789004243541987
89,1,440.5960041859653,0.6993432885501534,1,10,442.3148856551852,44,441.61383332894184,0.22727272727272727,0.10618756066479285,0.8938124393352072,2.130288983030405,1,417.13009308837354,0.6151425640564412,0,54,418.74883387610316,31,418.1319321014453,1.7419354838709677,0.9996071779769551,0.00039282202304491876,-7.841761017042855,0,407.8406616654247,0.6154084405861795,0,87,409.4752428543288,85,408.85879816650413,1.0235294117647058,0.999999831564802,1.6843519803628537e-07,-15.5967145740762,1,407.90739670419134,1.1155856258701533,1,88,410.0422431770712,96,408.92557626683265,0.9166666666666666,0.4258590691703734,0.5741409308296266,0.2987664222854194
90,0,444.81549069238827,1.0826121808495373,0,14,446.91803256003186,7,445.8337073910516,2.0,0.8480364243884705,0.15196357561152954,-1.7192827301629725,0,421.2494385181926,1.0488952291198075,0,41,423.3189306939021,22,422.2681549701374,1.8636363636363635,0.9987994300560163,0.001200569943983672,-6.723757590417663,1,411.9766182624735,0.6824101461097598,0,46,413.6781549346633,36,412.9945390596986,1.2777777777777777,0.9999819958036607,1.8004196339306178e-05,-10.924887692918805,0,412.5433696960099,0.8993129478767514,0,12,414.44587118853815,3,413.54539162269793,4.0,0.9172700172160143,0.08272998278398568,-2.405819800969522
91,1,449.41845231340267,0.832024427363649,0,87,451.25382844591513,89,450.4201570053119,0.9775280898876404,0.8661950707947308,0.13380492920526915,-1.8677271510408997,1,425.81926353345625,0.6820099484175444,0,58,427.5052209403366,6,426.8213032379281,9.666666666666666,0.9999999935730101,6.426989961714178e-09,-18.862759526024416,1,416.17957419436425,0.9322891582269222,0,75,418.1146833046805,70,417.1813093062956,1.0714285714285714,0.9999994085330577,5.914669422612989e-07,-14.34065945160016,1,416.9462909416761,0.7991450070403516,1,4,418.7481168387458,22,417.9478210164234,0.18181818181818182,0.07119216868152634,0.9288078313184737,2.5685190400597007
92,1,453.7544765449129,0.998992987209931,0,15,455.75712662003934,19,454.75647911359556,0.7894736842105263,0.671361569963699,0.32863843003630094,-0.7143496946724087,1,430.00517847109586,0.7318857212085277,0,16,431.74129372485913,10,431.00763062015176,1.6,0.9264227817182316,0.0735772182817685,-2.532995254576993,0,420.61557634198107,0.5827731683384627,0,95,422.2178177651949,16,421.63370889239013,5.9375,0.9999999999998842,1.1578710000622973e-13,-29.787023234886927,0,421.24966212315485,0.7160251718014479,1,35,422.9682903578505,62,422.2510993583128,0.5645161290322581,0.01713973476294106,0.9828602652370589,4.049067520398057
93,0,458.25776286725886,1.4999602963216603,1,37,460.7779768011533,52,459.27600524481386,0.7115384615384616,0.49795335913866623,0.5020466408613338,0.008186609167629567,0,434.24118844093755,0.7321496226359159,0,53,435.97711011441424,15,435.24315110826865,3.533333333333333,0.9999988098364464,1.1901635536111214e-06,-13.641418630111241,1,424.7181790492032,0.7658484012354165,0,3,426.48707653814927,18,425.7200109511614,0.16666666666666666,0.5942098138033405,0.4057901861966595,-0.38139623562897684,1,425.46885154326446,0.6989750908687711,0,46,427.1707963142544,40,426.47067672898993,1.15,0.884640314083413,0.115359685916587,-2.0371261867346377
94,1,463.27749699843116,0.9163140410091728,0,98,465.19710822589695,73,464.27917680167593,1.3424657534246576,0.9891781849484967,0.01082181505150331,-4.515310473150975,1,438.47750418866053,0.8157743469346315,1,88,440.2969134999439,96,439.4791670041159,0.9166666666666666,0.005620011099032762,0.9943799889009672,5.175785777381234,0,428.98772503226064,0.5657866925466806,0,37,430.5562716270797,52,429.989334119251,0.7115384615384616,0.9953992641264874,0.0046007358735126215,-5.37692766394645,1,429.67141083301976,0.5987727798055857,0,14,431.27354479930364,8,430.6737377475947,1.75,0.8662674796071872,0.1337325203928128,-1.8683520401955025
95,1,467.69783099158667,0.7824662842322141,0,66,469.5000831603538,59,468.7158438381739,1.11864406779661,0.9182310025006739,0.08176899749932606,-2.418550827583322,0,442.79674303065985,0.9493100044783205,1,38,444.7497642466333,43,443.79878036491573,0.8837209302325582,0.08263332013454516,0.9173666798654548,2.4070942706760814,1,433.0576454550028,0.6631133484188467,0,69,434.74291900964454,61,434.07843045075424,1.1311475409836065,0.9999991398590441,8.601409558583036e-07,-13.966168698827206,1,433.77472346648574,0.6150513046886772,0,54,435.39275077241473,31,434.7764577881899,1.7419354838709677,0.9944298332184588,0.0055701667815412125,-5.184744544654809
96,0,472.0000849382486,1.4160981397144496,0,80,474.4201443635393,60,473.00192158087157,1.3333333333333333,0.9783392771399863,0.0216607228600137,-3.810355904962377,1,447.2501836048905,0.5656045691575855,1,43,448.81930699036457,97,448.2518827661406,0.44329896907216493,5.039033634801626e-10,0.9999999994960966,21.408636604864235,1,437.24370300979353,0.699155239155516,0,40,438.961788429413,93,438.26149264653213,0.43010752688172044,0.35314974876531935,0.6468502512346807,0.60522263231696,1,437.89364657527767,0.7648026726674289,0,42,439.6626779900398,39,438.8966814405285,1.0769230769230769,0.8127552255579404,0.18724477444205953,-1.4680132734845308
97,0,476.92020935122855,0.06527330982498825,0,60,477.9887636497151,70,477.9219053518027,0.8571428571428571,0.6822226902290991,0.3177773097709009,-0.7640052760806177,0,451.3193834347185,0.7819969509728253,0,62,453.1053069056943,17,452.32166491704993,3.6470588235294117,0.9999998921053418,1.0789465816539194e-07,-16.042110365284806,0,441.4628331705462,0.9827176227699965,0,12,443.4482573622372,23,442.46435692417435,0.5217391304347826,0.9152771012597524,0.08472289874024767,-2.379840946090439,0,442.16320796567015,0.9472710902336985,0,87,444.1158179221675,85,443.1674726586789,1.0235294117647058,0.8209327659580781,0.17906723404192187,-1.522679868744284
98,0,480.4893520944752,0.832342847250402,0,87,482.3253544000909,85,481.4912894780282,1.0235294117647058,0.903614524076349,0.09638547592365097,-2.2380473324599888,0,455.6057776219677,0.7822975928429514,1,15,457.39118474698626,42,456.60727569670416,0.35714285714285715,4.014881998071207e-05,0.9999598511800193,10.12287735864613,0,445.94954427634366,0.7326707090251148,0,45,447.70127158565447,60,446.96737895021215,0.75,0.998575269448768,0.0014247305512320556,-6.552346823550559,1,446.6165655767545,0.948824473656714,0,53,448.5848579099402,55,447.6348202014342,0.9636363636363636,0.6485494294012483,0.35145057059875173,-0.6126691448028319
99,1,484.8257263507694,0.9989519007503986,0,37,486.828748179134,54,485.8275942034088,0.6851851851851852,0.4518133448479832,0.5481866551520168,0.19334669987717307,1,459.891729734838,0.6990643749013543,1,58,461.594212975353,58,460.89321161201224,1.0,0.24402612075860985,0.7559738792413901,1.1307315524617227,1,450.20218398119323,0.8660455767530948,1,43,452.0873221086804,93,451.2201391486451,0.46236559139784944,0.5848300091443006,0.41516999085569933,-0.3426331694647084,1,451.085972181987,0.6323447437025607,1,25,452.72119771689177,37,452.0877981581725,0.6756756756756757,0.20395948420175558,0.7960405157982444,1.361728716527962
