,self_acceptUp,self_cue_times,self_decision_times,self_decisions,self_punishment_values,self_response_times,self_reward_values,self_trial_times,self_punishment_reward_ratio,self_prob_reject,self_prob_accept,self_SV,harm_other_acceptUp,harm_other_cue_times,harm_other_decision_times,harm_other_decisions,harm_other_punishment_values,harm_other_response_times,harm_other_reward_values,harm_other_trial_times,harm_other_punishment_reward_ratio,harm_other_prob_reject,harm_other_prob_accept,harm_other_SV,harm_self_acceptUp,harm_self_cue_times,harm_self_decision_times,harm_self_decisions,harm_self_punishment_values,harm_self_response_times,harm_self_reward_values,harm_self_trial_times,harm_self_punishment_reward_ratio,harm_self_prob_reject,harm_self_prob_accept,harm_self_SV,other_acceptUp,other_cue_times,other_decision_times,other_decisions,other_punishment_values,other_response_times,other_reward_values,other_trial_times,other_punishment_reward_ratio,other_prob_reject,other_prob_accept,other_SV
0,0,0.0033659179462119937,1.2086892831139266,0,95,2.2360330207739025,16,1.0260163333732635,5.9375,0.9999466195456217,5.338045437829166e-05,-9.838012520000117,0,0.00424927391577512,5.210110711865127,1,14,6.238884964608587,57,1.0269877879181877,0.24561403508771928,0.028388839024452772,0.9716111609755472,3.532959608445623,0,0.004249273799359798,1.7430915718432516,0,28,2.7693931391695514,18,1.0253688286757097,1.5555555555555556,0.9843605975800789,0.015639402419921157,-4.142198764934937,0,0.003356436500325799,1.6587796730455011,1,60,2.68624983006157,61,1.025803790660575,0.9836065573770492,0.2410836479771431,0.7589163520228569,1.146747602871769
1,0,4.737207536469214,1.2173841759795323,0,96,6.973158384556882,89,5.755089173093438,1.0786516853932584,0.06918696246424993,0.9308130375357501,2.5992459969592137,1,8.73968022200279,1.2495685935718939,1,52,11.008991188602522,68,9.75748442672193,0.7647058823529411,0.12230341567249803,0.877696584327502,1.9707959870314995,1,5.270844197482802,3.4476188896223903,0,88,9.740625602426007,96,6.29176345653832,0.9166666666666666,0.2664942123080466,0.7335057876919534,1.012482962113956,1,5.186610520584509,1.0823476567165926,1,25,7.272642909316346,37,6.188491800101474,0.6756756756756757,0.41120069525304614,0.5887993047469539,0.3590039816873478
2,0,9.473356310045347,1.6150511840824038,1,71,12.092457262333483,69,10.476158476201817,1.0289855072463767,0.2360565683086323,0.7639434316913677,1.1744222716103907,1,13.509466051706113,0.8001782514620572,1,43,15.328961590654217,97,14.527600527158938,0.44329896907216493,0.0007160482774835053,0.9992839517225165,7.241046661861267,1,12.242027673171833,2.1828926034504548,1,54,15.428041256964207,78,13.24381769367028,0.6923076923076923,0.1544869868346418,0.8455130131653582,1.699833694125771,1,9.773295549675822,1.2491802488220856,0,94,12.04271397285629,46,10.79167654318735,2.0434782608695654,0.9995993613712894,0.0004006386287106947,-7.822049993339513
3,0,14.59373844449874,0.9484090111218393,0,43,16.545152288046665,7,15.595334490062669,6.142857142857143,0.9992626162567482,0.0007373837432518809,-7.2116644627004725,0,17.829978082096204,1.1156192814232782,1,60,19.96474833053071,61,18.847469793749042,0.9836065573770492,0.4507737207425072,0.5492262792574928,0.1975450370658229,1,17.92886337847449,1.4822424123995006,0,12,20.41466212819796,9,18.931147224851884,1.3333333333333333,0.9799966944476655,0.02000330555233453,-3.8916516611324656,1,14.543178959400393,0.8158072514925152,1,17,16.379122854443267,82,15.561509385006502,0.2073170731707317,2.2485424608920113e-06,0.9999977514575391,13.005226098272004
4,1,19.046341816079803,0.8653794795973226,1,52,20.931464458699338,68,20.064800241496414,0.7647058823529411,0.07402419431329832,0.9259758056867017,2.526456116589389,1,22.46557637793012,0.8652285663411021,1,26,24.35063344053924,84,23.48378868040163,0.30952380952380953,0.0012450893010034214,0.9987549106989966,6.687302158855497,0,22.91601876693312,2.399664435419254,0,15,26.33499495894648,42,23.934076205594465,0.35714285714285715,0.40761937188529895,0.592380628114701,0.3738155542497522,1,18.879127990221605,0.5646181184565648,1,26,20.44817039440386,84,19.88189302070532,0.30952380952380953,5.298901390005106e-06,0.99999470109861,12.148005744881951
5,1,23.43347176257521,1.0996615909971297,0,32,25.552062296308577,16,24.451264905626886,2.0,0.9917264896432451,0.008273510356754889,-4.786388465435288,1,26.85149664839264,1.1494119914714247,0,82,29.020876987604424,40,27.86968998797238,2.05,0.9929679861509754,0.007032013849024603,-4.950225294189845,0,28.83618488209322,1.766706725815311,0,95,31.606030761031434,16,29.838062210939825,5.9375,0.999976470637251,2.3529362748979158e-05,-10.657237908443495,1,22.948815923766233,0.8655821457505226,1,15,24.83477530523669,19,23.96710052236449,0.7894736842105263,0.9368489633478164,0.06315103665218358,-2.6969928131410854
6,0,28.053435922716744,1.2817356284940615,1,58,30.33832571655512,58,29.055353942792863,1.0,0.4180871377304366,0.5819128622695634,0.33063084106657453,0,31.521851997589692,1.599295764695853,1,71,34.140512062003836,64,32.5395329433959,1.109375,0.5703357903528328,0.4296642096471673,-0.2832212974330084,1,34.10623816784937,1.232568732695654,1,17,36.34201439912431,82,35.108115891809575,0.2073170731707317,0.003346558688331003,0.996653441311669,5.6964705474095885,1,27.335269131232053,1.0153370500775054,0,97,29.354172395076603,61,28.337064682506025,1.5901639344262295,0.9886407462940524,0.011359253705947633,-4.466298299945728
7,0,32.838786752545275,0.8158996957354248,0,62,34.674169266130775,16,33.856995894457214,3.875,0.9992479261892769,0.0007520738107230126,-7.1919237295137775,1,36.64148944243789,1.2986173662357032,0,58,38.94359401031397,6,37.643442622967996,9.666666666666666,0.9997136454998412,0.00028635450015883736,-8.157993608151713,1,38.84328609984368,1.0827454829122871,1,43,40.94502373517025,93,39.86103776143864,0.46236559139784944,0.008243223711844605,0.9917567762881554,4.790086397451083,1,31.854393629124388,1.5160177398938686,0,82,34.37410518724937,40,32.85612715582829,2.05,0.9994613727879397,0.0005386272120603245,-7.525948082847594
8,1,37.175145461340435,1.1320735635235906,0,82,39.31055373302661,40,38.177220320678316,2.05,0.9908089374771373,0.00919106252286277,-4.680290171069025,1,41.44486729125492,1.5323456024052575,1,53,43.99708089581691,55,42.46297845814843,0.9636363636363636,0.5326512639167869,0.4673487360832132,-0.130791183746741,1,43.445881017134525,0.7825052068801597,1,37,45.23160201893188,54,44.44766985240858,0.6851851851851852,0.5055829576982203,0.4944170423017798,-0.022332758955832973,1,36.87444296432659,1.700077747926116,0,45,39.59457281290088,40,37.89242613152601,1.125,0.8713448417412057,0.1286551582587943,-1.9129021800300965
9,1,41.8120600997936,2.083256296464242,0,45,44.91471309098415,40,42.830145587795414,1.125,0.8472849566331877,0.15271504336681233,-1.7134633453722208,1,46.49779714108445,1.0490843281149864,0,69,48.5505808184389,61,47.499724247609265,1.1311475409836065,0.6402331667416905,0.3597668332583095,-0.5763762968203119,1,47.73242690577172,1.0826925446745008,1,43,49.83380977658089,97,48.749889777973294,0.44329896907216493,0.004768338808979977,0.99523166119102,5.3409775492077465,0,42.09462812135462,1.399336534901522,0,40,44.498023510794155,15,43.09648411697708,2.6666666666666665,0.999450428344718,0.0005495716552820109,-7.505821669019737
10,0,47.41554508905392,0.8492353203473613,0,28,49.2843213013839,18,48.43372144107707,1.5555555555555556,0.9840576718583276,0.015942328141672426,-4.1227067856834,1,51.05128876736853,0.8987344623310491,1,14,52.95362065313384,57,52.05303533107508,0.24561403508771928,0.028388839024452772,0.9716111609755472,3.532959608445623,1,52.335551599622704,1.3656465407693759,0,82,54.72056204499677,40,53.3535383224953,2.05,0.9978523339076185,0.0021476660923815134,-6.141223589258805,0,46.998060251469724,1.699123676167801,0,68,49.717244719620794,63,48.016460207873024,1.0793650793650793,0.39144763979789465,0.6085523602021053,0.4412311927635644
11,1,51.78502846020274,1.5660344114294276,0,56,54.3706424793927,46,52.80334110814147,1.2173913043478262,0.8273072304168686,0.17269276958313143,-1.5666620085767313,1,55.45421996037476,0.9824399428907782,1,37,57.45659111533314,54,56.47246584307868,0.6851851851851852,0.25161392363358714,0.7483860763664129,1.0900231260412776,1,57.222122535225935,0.9655384520301595,0,19,59.20704227464739,37,58.24017681332771,0.5135135135135135,0.6653685752841736,0.33463142471582646,-0.6873114342598293,1,52.21808027313091,1.2324758933391422,0,46,54.470701106474735,40,53.23629692138638,1.15,0.8874151871451763,0.11258481285482363,-2.0646061233494883
12,0,56.873332448420115,1.082141434890218,1,54,58.97379640780855,80,57.890250926837325,0.675,0.011847162803744427,0.9881528371962556,4.423748966232692,0,59.9573717553867,0.9654772175708786,0,43,61.94276912335772,7,60.97566899599042,6.142857142857143,0.9987865564586684,0.0012134435413315935,-6.7130788789986005,1,61.70790785283316,1.2001820440636948,1,10,63.927570739528164,44,62.72613635286689,0.22727272727272727,0.24695805212880328,0.7530419478711967,1.1149024411452693,1,56.97151453664992,0.8988798445789143,1,52,58.8901588775916,68,57.989372074604034,0.7647058823529411,0.015692088054473752,0.9843079119455262,4.138782126991159
13,1,61.474722825339995,1.1987139981938526,0,42,63.67663405044004,39,62.47669615398627,1.0769230769230769,0.8381302666508077,0.16186973334919236,-1.6443816412350847,1,64.44374294823501,0.9317674703197554,1,40,66.39537486538757,93,65.46198725060094,0.43010752688172044,0.0010282819352901429,0.9989717180647099,6.87883708245182,1,66.42788362770807,1.1156741949962452,1,24,68.54685579007491,69,67.4298530058004,0.34782608695652173,0.037177101478940267,0.9628228985210597,3.254176468776349,0,61.39066139492206,1.1995633788174018,0,43,63.61047677521128,7,62.40908347477671,6.142857142857143,0.9999543012560239,4.5698743976081155e-05,-9.993394044765624
14,0,66.17826565145515,1.5829015319468454,0,6,68.78031459474005,26,67.19614057207946,0.23076923076923078,0.7284698417761926,0.27153015822380744,-0.9868730138601473,0,68.89670068933628,1.1323113901307806,1,87,71.04876551404595,85,69.91461590619292,1.0235294117647058,0.16841796451525048,0.8315820354847495,1.5968811796367564,1,71.04740057897288,1.582921679946594,0,69,73.63335119001567,61,72.04907761199865,1.1311475409836065,0.8847679650920369,0.1152320349079631,-2.038377633891619,1,66.1111602303572,0.9656060074921697,1,10,68.09658209199551,44,67.12915880489163,0.22727272727272727,0.01197406236701215,0.9880259376329878,4.41296610904247
15,1,71.28138283919543,1.4493208115454763,1,88,73.73381593963131,96,72.28316535346676,0.9166666666666666,0.011646613938635308,0.9883533860613647,4.441024823275121,0,73.54906694544479,1.0321152819087729,1,60,75.58527742756996,70,74.55149301374331,0.8571428571428571,0.16896819137584596,0.831031808624154,1.5929575911518254,0,76.13442496524658,1.0313362220767885,0,78,78.18663066870067,34,77.1539306967752,2.2941176470588234,0.9986347441837157,0.001365255816284331,-6.595047268080067,1,70.59732954704668,0.8156993997981772,1,50,72.43263107328676,62,71.61519696144387,0.8064516129032258,0.051278457355713125,0.9487215426442869,2.917844604289152
16,0,76.2346878387034,1.1162442676723003,1,56,78.37021897430532,59,77.25274369714316,0.9491525423728814,0.34018460146758434,0.6598153985324157,0.6624716809425191,1,78.0859506111592,1.1323019085684791,0,54,80.23825365747325,31,79.10408271627966,1.7419354838709677,0.980883138619258,0.019116861380742013,-3.9378825872967598,0,80.68753614800517,1.899268584442325,0,60,83.58992847811896,61,81.68928824260365,0.9836065573770492,0.7685645003317831,0.2314354996682169,-1.2002232740606935,1,74.93346228112932,0.6156927627744153,1,28,76.56931065046228,82,75.95180060807616,0.34146341463414637,1.192951887840632e-05,0.9999880704811216,11.336482721794628
17,1,80.87140652700327,1.046451247879304,0,72,82.93981327849906,51,81.89202395966277,1.411764705882353,0.8799815053976482,0.1200184946023518,-1.9922550380650348,1,82.73900782852434,0.8146232542349026,1,28,84.55822445463855,82,83.74139281059615,0.34146341463414637,0.0020147809988413368,0.9979852190011587,6.205227961528291,1,86.09136807965115,1.4153696820139885,0,87,88.52658127027098,89,87.1098901098594,0.9775280898876404,0.4646710433144573,0.5353289566855427,0.14155170874321962,1,79.06960220541805,0.8153999437345192,1,55,80.90368812950328,95,80.08742655813694,0.5789473684210527,2.6370858286939303e-05,0.9999736291417131,10.543224639067633
18,1,85.44136270682793,1.8992393499938771,1,58,88.35990867775399,58,86.4594102690462,1.0,0.4180871377304366,0.5819128622695634,0.33063084106657453,0,87.0587439595256,1.8495707269757986,1,68,89.9277801217977,63,88.07644702866673,1.0793650793650793,0.5449516402603689,0.45504835973963104,-0.18029335881385297,1,91.02819864917547,1.8492926041362807,0,16,93.89663629431743,10,92.04611070547253,1.6,0.9841161634909973,0.015883836509002755,-4.126441922007043,1,83.40531340963207,0.9991356069222093,1,53,85.4247421042528,55,84.42386743973475,0.9636363636363636,0.3352956229507871,0.6647043770492129,0.6843297967667281
19,0,90.8614727234235,1.0994304802734405,1,60,92.97995461535174,70,91.87922912579961,0.8571428571428571,0.09727080764783935,0.9027291923521606,2.2279236907098827,1,92.428770934348,0.8657923181308433,1,24,94.31461495801341,69,93.44694254558999,0.34782608695652173,0.010627803193400842,0.9893721968065992,4.533597087353466,0,96.39805890829302,1.9330296895932406,1,14,99.33402785018552,57,97.39971302775666,0.24561403508771928,0.07359150794951375,0.9264084920504863,2.5327856355407006,0,87.92553341109306,2.433256454532966,1,7,91.37913154577836,54,88.9438191949157,0.12962962962962962,0.000605619035584315,0.9993943809644157,7.408653621235263
20,1,102.50255327788182,0.9311685581924394,0,58,104.45338993764017,6,103.52082720992621,9.666666666666666,0.9998133155162733,0.00018668448372676443,-8.585903917010429,0,103.83751149626914,1.2318682898767292,0,62,106.08930230687838,16,104.85564794717357,3.875,0.9990437173142405,0.0009562826857594819,-6.95150025200555,0,108.84114605549257,1.5323230838403106,0,55,111.39181497250684,60,109.85818779293913,0.9166666666666666,0.7052250423278608,0.2947749576721393,-0.8723047509826793,0,100.90289366221987,1.1653748179087415,0,78,103.08647209126502,34,101.91919189528562,2.2941176470588234,0.9997847462505651,0.00021525374943490353,-8.44347771891081
21,1,106.95548968575895,0.8656054543098435,1,50,108.84079405642115,62,107.97388648160268,0.8064516129032258,0.1600314354383945,0.8399685645616055,1.6579942005703534,0,108.58933154132683,1.4489510345738381,0,62,111.04184523422737,17,109.59124521585181,3.6470588235294117,0.9988835167841359,0.0011164832158641123,-6.79645441266266,1,113.89324390736874,1.4995294825639576,1,42,116.41220208466984,67,114.91121245734394,0.6268656716417911,0.2137576514035633,0.7862423485964367,1.302422173236164,1,105.58747870626394,0.9155470643891022,1,58,107.52299609361216,58,106.60563846561126,1.0,0.3344819629366642,0.6655180370633358,0.6879827848401614
22,0,111.34134951187298,0.999290075735189,0,40,113.36003825766966,15,112.35942235786933,2.6666666666666665,0.9963133232901841,0.0036866767098159016,-5.59933635812693,1,113.54322478652466,0.7490755576873198,1,43,115.31124745984562,93,114.5608425225364,0.46236559139784944,0.0013305076763008294,0.9986694923236992,6.62086330448986,1,118.91323200811166,1.5324988858774304,0,98,121.46550882246811,73,119.93165132252034,1.3424657534246576,0.9563292527818338,0.043670747218166175,-3.0864237825212575,0,110.02322680910584,0.9489304913440719,0,53,111.99299083137885,15,111.04201234481297,3.533333333333333,0.9999234869656614,7.651303433866534e-05,-9.47797293217183
23,0,115.86142492108047,1.0988145805895329,0,45,117.97935056744609,42,116.87956058175769,1.0714285714285714,0.7974641060799591,0.2025358939200409,-1.370519700830798,0,117.81232163007371,1.5316720235859975,0,38,120.3651870850008,43,118.83146469586063,0.8837209302325582,0.6685141337987297,0.3314858662012703,-0.7014723660511849,1,123.96642931411043,1.7998878817306831,0,94,126.76931689248886,46,124.96816402603872,2.0434782608695654,0.9983940395007602,0.0016059604992397863,-6.432426008065035,0,114.49311448540539,0.9487025412963703,0,80,116.46176680666395,60,115.5113362694392,1.3333333333333333,0.8948613497132858,0.10513865028671426,-2.1413888317395307
24,1,120.4810761930421,0.9795607397099957,0,41,122.4826663127169,7,121.50182241539005,5.857142857142857,0.9991344637977513,0.0008655362022487265,-7.051295445095239,1,122.86555330641568,0.9154277560301125,1,50,124.7849474727409,62,123.86722717899829,0.8064516129032258,0.22925839062243591,0.7707416093775641,1.2125034696155284,1,129.26998652052134,2.366219773888588,1,52,132.6394746323349,68,130.271977626835,0.7647058823529411,0.37546025763824464,0.6245397423617554,0.5088623391409683,0,118.96275959443301,1.015775962616317,0,78,120.99866943527013,65,119.98091816867236,1.2,0.6382307007167667,0.3617692992832333,-0.567693103983429
25,0,124.98393050720915,0.8458334518363699,0,50,126.85270671953913,7,126.00551386340521,7.142857142857143,0.9995792101017017,0.0004207898982983118,-7.772956024318787,0,127.28548910107929,0.9825454241363332,1,59,129.28796178661287,65,128.30358762608375,0.9076923076923077,0.28828670757976693,0.7117132924202331,0.9037196537580616,0,135.14076648105402,1.3480505329789594,1,35,137.50915474374779,62,136.1598376458278,0.5645161290322581,0.21999318830507086,0.7800068116949291,1.265706068964379,0,123.49920869327616,0.9827303126221523,1,53,125.5019037979655,57,124.51728193438612,0.9298245614035088,0.23282194661707745,0.7671780533829226,1.192444933213657
26,0,129.35339017468505,2.2000532541424036,1,77,132.57275400031358,72,130.3714653911302,1.0694444444444444,0.2301028262624163,0.7698971737375837,1.2077306856068282,1,131.78807121841237,1.0154946793336421,0,97,133.80763936962467,61,132.7902088924311,1.5901639344262295,0.9518520732265656,0.048147926773434414,-2.9841315577993983,1,140.0106998264091,1.7830677734455094,0,53,142.81321604759432,55,141.02873909228947,0.9636363636363636,0.798132352431069,0.20186764756893108,-1.374662166271644,1,128.00221787125338,1.2162989440839738,0,46,130.23819637368433,36,129.02011333499104,1.2777777777777777,0.9560953074644339,0.04390469253556609,-3.0808363962433454
27,1,135.0741323675029,1.7828769591869786,0,98,137.8767339218175,73,136.0924217068823,1.3424657534246576,0.5755842701188749,0.4244157298811251,-0.3046721769774042,0,136.30821852874942,1.4825181649066508,0,15,138.79445303045213,42,137.30999235168565,0.35714285714285715,0.24577379319858317,0.7542262068014168,1.1212807589816043,0,145.31410137889907,1.732422560104169,0,87,148.04953509243205,76,146.3158313500462,1.144736842105263,0.8387348247995767,0.16126517520042324,-1.6488445344659572,0,132.73846382985357,1.0493280806113034,1,28,134.80757378949784,41,133.75663030531723,0.6829268292682927,0.284932950094946,0.715067049905054,0.9201224246230294
28,1,140.37733125372324,1.082613137550652,0,46,142.46306339616422,36,141.37920581712388,1.2777777777777777,0.9226946465017349,0.07730535349826502,-2.479535143257684,1,141.29775889916345,1.2656270246952772,0,98,143.5807555617066,73,142.31296202365775,1.3424657534246576,0.7702233424676846,0.22977665753231538,-1.209572745005409,0,150.55097153340466,1.0993419867008924,0,51,152.66977342474274,7,151.56890176259913,7.285714285714286,0.9995900639897477,0.00040993601025233084,-7.799099462944811,1,137.30860450305045,1.449338194099255,1,69,139.77793277334422,61,138.32683616352733,1.1311475409836065,0.5544304173519472,0.44556958264805285,-0.21858788700275766
29,0,144.96432917099446,1.4660105496877804,0,22,147.4496554279467,31,145.9823020666372,0.7096774193548387,0.8041546120590981,0.19584538794090195,-1.4124660433484504,1,146.08135012816638,1.8495561097515747,0,46,148.9503590313252,40,147.0991480119992,1.15,0.8646592654878406,0.13534073451215942,-1.8545399586453053,0,155.17043475643732,2.0161248012445867,0,62,158.1895900691161,16,156.1722544064978,3.875,0.9994917380770298,0.0005082619229701826,-7.584005255730102,0,142.27873356151395,1.9999229630921036,1,96,145.29857311944943,89,143.29660966724623,1.0786516853932584,0.057377288543213334,0.9426227114567867,2.799017553630659
30,1,149.95056801836472,1.0306282731471583,1,40,152.00236127828248,93,150.97054742777254,0.43010752688172044,0.00041973558574659453,0.9995802644142534,7.775465778988369,1,151.4516789293848,1.1992117746267468,0,6,153.67107396491338,8,152.46984777518082,0.75,0.9669573885658591,0.03304261143414091,-3.376356444790491,1,160.69115213945042,1.3483491989318281,1,55,163.0589213417843,95,161.70993016904686,0.5789473684210527,0.018928199017349545,0.9810718009826505,3.947992826888185,1,147.79907129111234,1.8160984112182632,0,62,150.63518980296794,43,148.81689682905562,1.441860465116279,0.9765623870043234,0.023437612995676583,-3.729696511789366
31,0,154.5040521385381,5.101578030735254,0,87,160.62526350549888,76,155.52225219411775,1.144736842105263,0.25128457930699577,0.7487154206930042,1.0917728866635115,1,156.1714950996684,1.5472480854950845,0,15,158.74001483852044,19,157.19154245965183,0.7894736842105263,0.9201784092648608,0.07982159073513914,-2.4447735459048454,0,165.56097210233565,1.5167059357045218,0,59,168.09684085682966,65,166.5791132939048,0.9076923076923077,0.6355737325973873,0.36442626740261275,-0.5562038601005861,0,153.13577291276306,1.214653120841831,1,60,155.35432646877598,70,154.1388050043024,0.8571428571428571,0.031271849298258325,0.9687281507017417,3.433265716882949
32,0,163.12607654067688,1.6325737104052678,1,14,165.76181468798313,57,164.12789698073175,0.24561403508771928,0.02442839427175536,0.9755716057282446,3.6872774061109856,1,161.24147142772563,0.8992930782260373,0,62,163.16073759435676,43,162.2592807682231,1.441860465116279,0.9407695581889168,0.059230441811083195,-2.765262589747544,0,170.59733112726826,1.532136220135726,1,45,173.13301736372523,60,171.59955136897042,0.75,0.48525980466751073,0.5147401953324893,0.058977871051682736,0,157.85538325633388,0.8989043383626267,1,14,159.75797548727132,57,158.85714680771343,0.24561403508771928,0.0008171268732269921,0.999182873126773,7.10889872266989
33,0,168.26269369828515,1.9996590624796227,0,60,171.26535877841525,40,169.264500311343,1.5,0.9486429844826635,0.05135701551733654,-2.916230977411466,0,165.66083003859967,1.0828007914824411,0,95,167.7636635726085,16,166.67887641559355,5.9375,0.9999439500814199,5.6049918580070676e-05,-9.789211809588043,1,175.63437676790636,3.1671308630611748,0,53,179.804380118032,40,176.63606881326996,1.325,0.96894668384421,0.03105331615578995,-3.4405039853591566,0,162.25847839959897,1.7494903716724366,1,71,165.01137933100108,64,163.26020521041937,1.109375,0.44024274932285756,0.5597572506771424,0.2401769310288513
34,0,173.76688371307682,1.2990479824366048,0,41,176.0851798474323,22,174.78482737427112,1.8636363636363635,0.9887849263930566,0.011215073606943394,-4.479218111034566,0,170.26392786821816,2.149879348347895,0,78,173.41741214646026,65,171.26573290105443,1.2,0.67483034857814,0.3251696514218601,-0.7301142733348895,0,182.30531325156335,1.2325039426796138,0,71,184.55757141904905,64,183.32374876341783,1.109375,0.8595389354857328,0.14046106451426724,-1.8114657944809887,0,167.51162189838942,1.1659097302472219,1,58,169.69738777901512,58,168.52974689239636,1.0,0.3344819629366642,0.6655180370633358,0.6879827848401614
35,1,178.58673994254787,1.115776120685041,0,16,180.72208737477195,10,179.60493130679242,1.6,0.9893582047450197,0.010641795254980328,-4.532267258217697,0,175.91802725603338,1.1486281908582896,0,56,178.08593796915375,59,176.93630592885893,0.9491525423728814,0.4424022234901288,0.5575977765098712,0.23141839566277145,1,187.05894069978967,1.1488067583413795,0,54,189.2270149680553,31,188.07693729910534,1.7419354838709677,0.9916170518766256,0.008382948123374378,-4.773137339015101,1,172.19856189971324,1.6156990837771446,0,98,174.83466271287762,73,173.21692393021658,1.3424657534246576,0.8276854242399034,0.17231457576009662,-1.5693114245835504
36,0,183.22261912666727,0.8328719023847952,0,62,185.07506076036952,17,184.24089819437359,3.6470588235294117,0.9991073758318747,0.0008926241681253231,-7.020451907243066,1,180.5874640890397,1.683242232305929,1,58,183.29089155746624,58,181.60586207010783,1.0,0.5238842989597944,0.4761157010402056,-0.09560996232148172,1,191.7299000970088,2.2496377292554826,0,50,194.99806617735885,62,192.74720375973266,0.8064516129032258,0.532757477634489,0.46724252236551106,-0.13121786408716327,1,177.33572463633027,1.1158582932548597,0,32,179.4711009080056,16,178.35341466846876,2.0,0.9976196689938117,0.0023803310061883145,-6.038132554241138
37,1,187.57621078228112,1.6829550231341273,1,66,190.2783388957614,59,188.59412678924855,1.11864406779661,0.5347870585969403,0.46521294140305963,-0.13937340708364399,0,185.79126884054858,1.6492891276720911,1,54,188.46021619311068,80,186.8092772916425,0.675,0.025102533135360705,0.9748974668646393,3.6593635405048013,0,197.49936869286466,1.9830108056776226,1,77,200.50129974994343,72,198.5169520585332,1.0694444444444444,0.7804778230092394,0.21952217699076057,-1.268453064188266,0,181.9717357706977,1.1977583459811285,0,87,184.19086414016783,76,182.9913043169072,1.144736842105263,0.29700419596620187,0.7029958040337981,0.8616046566001495
38,1,192.7798211638583,1.2826446633553132,1,28,195.08115022734273,82,193.7972630978329,0.34146341463414637,0.001056760524844158,0.9989432394751558,6.851489839642157,0,190.96103949984536,1.1493148065637797,0,12,193.11412832210772,3,191.96293618669733,4.0,0.9906920346171205,0.009307965382879433,-4.667533197429027,1,203.00277767237276,1.8660210582893342,0,58,205.88831275852863,6,204.02104409819003,9.666666666666666,0.9998138404140666,0.00018615958593341526,-8.588720086308031,1,186.6916368791135,1.5487319338135421,0,4,189.26081044354942,22,187.71001550217625,0.18181818181818182,0.5661294960246213,0.4338705039753787,-0.26607673195738374
39,1,197.5822611383628,0.7986651685787365,1,14,199.3838999294676,57,198.584055899526,0.24561403508771928,0.02442839427175536,0.9755716057282446,3.6872774061109856,0,195.61451706197113,0.9321234200615436,1,35,197.54994002985768,62,196.61618895921856,0.5645161290322581,0.07569203606328923,0.9243079639367108,2.502372359425754,1,208.38974248350132,2.5332787359366193,0,66,211.9420165324118,59,209.40744436753448,1.11864406779661,0.8843657391989294,0.11563426080107063,-2.034438423159645,1,191.76136629399844,1.0991918635554612,0,33,193.88018833333626,25,192.77940160932485,1.32,0.980224123052123,0.019775876947876934,-3.9033183835493546
40,1,208.89150642999448,0.8819218601565808,1,69,210.7915114077041,61,209.90836959984154,1.1311475409836065,0.5092447685399982,0.4907552314600018,-0.036983288950069464,0,207.07302027137484,1.165669533307664,0,14,209.2580114378361,7,208.09059218037874,2.0,0.9855047417400574,0.014495258259942629,-4.219332358698833,0,221.44976960052736,2.7853974469471723,0,43,225.25279703037813,7,222.4665581039153,6.142857142857143,0.9991368627793191,0.0008631372206809231,-7.054073365317322,1,203.4067221963778,2.0992120117880404,0,56,206.52241100859828,46,204.42132127296645,1.2173913043478262,0.8866831822759723,0.11331681772402769,-2.057300147202622
41,1,213.29577332362533,1.3330109637463465,0,53,215.6452689890284,40,214.31093141110614,1.325,0.9133260386673404,0.08667396133265959,-2.354939415793152,1,211.75816077087075,0.899110165075399,1,88,213.6609205075074,96,212.7601265932899,0.9166666666666666,0.03855342145849727,0.9614465785415027,3.216394153087859,0,227.7537214725744,1.0157020862679929,0,96,229.7875011456199,89,228.7705810869811,1.0786516853932584,0.6674341062650634,0.3325658937349366,-0.6966026510877059,1,209.02285584702622,1.4674213117687032,0,75,211.4932918677805,70,210.0246853735298,1.0714285714285714,0.23908426360304835,0.7609157363969516,1.157706567092069
42,0,218.1460298760794,1.666236840421334,0,78,220.8154686843045,65,219.14787836547475,1.2,0.5181811253012871,0.4818188746987128,-0.07275657909076912,0,216.16135428426787,0.8482271252432838,0,41,218.01332935120445,22,217.16335566225462,1.8636363636363635,0.9854485858061292,0.014551414193870864,-4.215408770213902,0,232.28852672351059,1.3159237942891195,0,45,234.60776033706497,42,233.29051703971345,1.0714285714285714,0.9183421676315727,0.08165783236842729,-2.4200323118533325,1,213.99477927165572,2.0994873691815883,0,19,217.11299844819587,37,215.01170249073766,0.5135135135135135,0.219389495777095,0.780610504222905,1.2692276416036978
43,0,223.31655075587332,0.8824903526110575,0,14,225.21817192726303,7,224.33429372613318,2.0,0.9925073636041716,0.0074926363958284494,-4.886313707424599,1,220.51439364498947,0.8656354789854959,0,56,222.40027519944124,46,221.5326968114823,1.2173913043478262,0.8562119383616151,0.14378806163838492,-1.784177515794787,0,237.10888151964173,0.9486148378346115,0,58,239.06073664606083,58,238.11066561413463,1.0,0.8064545407476613,0.19354545925233868,-1.4271351134713228,0,219.61672308132984,1.4826038930332288,0,62,222.1157697996823,16,220.6318100579083,3.875,0.999974815354099,2.5184645900903954e-05,-10.589250853822893
44,0,227.72046406997833,0.9832391508389264,1,24,229.72173261025455,90,228.7373868940631,0.26666666666666666,0.00019467147895535497,0.9998053285210446,8.54400245301873,0,224.90037356957328,0.9494480211287737,0,50,226.85327876755036,7,225.90204230626114,7.142857142857143,0.9993349730171749,0.0006650269828251131,-7.315017694243372,1,241.56191076675896,1.1657852859934792,0,56,243.74713027838152,46,242.58003497077152,1.2173913043478262,0.9475267694664506,0.052473230533549346,-2.8935520443344602,1,224.61689809325617,1.3158056712709367,1,14,226.95285660552327,57,225.63524906209204,0.24561403508771928,0.0008171268732269921,0.999182873126773,7.10889872266989
45,1,232.22311690321658,1.4488609607797116,0,46,234.6916032988811,40,233.24147498316597,1.15,0.857373932041728,0.1426260679582721,-1.7936478541748377,0,229.35346010047942,0.8994609790388495,0,7,231.27281871135347,54,230.37146302079782,0.12962962962962962,0.024849337180425368,0.9751506628195746,3.6697609056617266,1,246.24874212639406,0.9821120424894616,0,41,248.25058508501388,7,247.26703304599505,5.857142857142857,0.9989603353257345,0.0010396646742655816,-6.867816840910449,0,229.45317818503827,1.3656196765368804,0,14,231.82245296402834,7,230.45499941532034,2.0,0.9962935953855031,0.0037064046144968544,-5.5939796885032615
46,0,237.1926004323177,1.433215368189849,0,28,239.6447704222519,41,238.21035367425065,0.6829268292682927,0.5445949025905905,0.45540509740940954,-0.1788548734570326,0,233.7734010310378,0.9324240613495931,0,28,235.72542010771576,18,234.7912317047594,1.5555555555555556,0.9762863651259956,0.023713634874004345,-3.717705756416596,0,250.75155732955318,2.1482599943410605,0,62,253.92045529966708,17,251.7709868144011,3.6470588235294117,0.9994167332357885,0.0005832667642115171,-7.446282467790935,1,234.32346787524875,1.0659052265109494,1,43,236.4097689052578,97,235.34129933908116,0.44329896907216493,2.569524579110194e-06,0.9999974304754209,12.871787095314856
47,1,242.1457948149182,0.981908981106244,1,53,244.147316194023,55,243.16408533940557,0.9636363636363636,0.4459278072616921,0.5540721927383079,0.2171379182675221,0,238.22651482117362,1.3152885365998372,1,58,240.5618333349703,58,239.2447385804262,1.0,0.5238842989597944,0.4761157010402056,-0.09560996232148172,0,256.4218095680699,1.6150610606418923,1,7,259.0402594601037,54,257.42394447652623,0.12962962962962962,0.0588829964707025,0.9411170035292975,2.7715151071472515,1,238.90955991810188,1.1485835490748286,1,66,241.06222484016325,59,239.91149018506985,1.11864406779661,0.567483498866469,0.432516501133531,-0.2715911934915089
48,0,246.64911925140768,1.0656879430171102,1,87,248.73373376694508,85,247.66676898743026,1.0235294117647058,0.06691836272579199,0.933081637274208,2.635019287099916,1,243.06293871509843,1.3158613747218624,0,72,245.39890552358702,51,244.08109215355944,1.411764705882353,0.9156615136167148,0.08433848638328523,-2.384808468211248,1,261.54135298833717,1.6498876446858048,1,58,264.1943181566894,58,262.5431769840652,1.0,0.8064545407476613,0.19354545925233868,-1.4271351134713228,0,243.5624310618732,1.1671241470612586,0,50,245.7496531365905,7,244.5806718087988,7.142857142857143,0.9999841974217475,1.5802578252522e-05,-11.055321648001367
49,1,251.23471549304668,0.8158759920625016,1,37,253.0536591320997,54,252.23634472372942,0.6851851851851852,0.20938801689386533,0.7906119831061347,1.3286182368386708,1,247.8994329298148,1.082519508083351,0,53,250.00207722967025,40,248.91757491149474,1.325,0.9210339419612306,0.07896605803876942,-2.456478773890077,0,266.69530146289617,2.43303601059597,0,60,270.1476871561026,70,267.71341697557364,0.8571428571428571,0.49018080825404065,0.5098191917459594,0.03928181739181351,0,248.24936316197272,0.982569127692841,1,37,250.25164463801775,52,249.2670366015518,0.7115384615384616,0.087111870242508,0.912888129757492,2.349420185206605
50,0,255.55480362311937,1.4158516562310979,1,7,257.9901519245468,54,256.5730072343722,0.12962962962962962,0.023335816517861097,0.9766641834821389,3.7341535009171594,0,252.50250863609836,1.6661499271867797,1,45,255.18813229480293,60,253.5203298283741,0.75,0.20876792555042845,0.7912320744495716,1.3323680875331574,0,272.6488640421303,1.900390162016265,0,68,275.5525162211852,63,273.6508760867873,1.0793650793650793,0.8415496602901689,0.15845033970983116,-1.6698037958098482,1,252.75199308164883,1.0494900555349886,0,53,254.8217197312042,40,253.77001654508058,1.325,0.957974062935261,0.042025937064739,-3.1265337265852304
51,1,260.4916922665434,1.2332972247386351,1,55,262.7436960149789,95,261.5097856557695,0.5789473684210527,0.0009911611293716982,0.9990088388706283,6.915641791490617,0,257.6891578726936,0.8989450295921415,0,9,259.60822848428506,7,258.70756770554,1.2857142857142858,0.9778901917288961,0.022109808271103825,-3.789376062095425,0,278.0527639242355,1.4324572464684024,0,28,280.4884590890724,41,279.05461873474997,0.6829268292682927,0.7260303813890387,0.2739696186109613,-0.9745746423340852,0,257.32182758278213,1.9986690402729437,1,7,260.3249702914618,54,258.32443142845295,0.12962962962962962,0.000605619035584315,0.9993943809644157,7.408653621235263
52,1,265.2458566024434,1.6484464629320428,0,97,267.9132557117846,61,266.2635446592467,1.5901639344262295,0.9073878416583769,0.0926121583416231,-2.2821495354233265,0,262.10875431017485,1.6327732161153108,0,86,264.74534499878064,59,263.11050640477333,1.4576271186440677,0.9128005505113193,0.0871994494886807,-2.3483193839576773,0,282.9897821476916,1.332489483524114,0,6,285.3417358812876,26,284.00776887044776,0.23076923076923078,0.729402788969566,0.270597211030434,-0.9915946929460014,0,262.82655527535826,0.8651894553331658,1,54,264.7110094751697,80,263.844021308003,0.675,0.0010229256140515952,0.9989770743859484,6.884065059033937
53,1,270.4143381783506,0.8320734844310209,1,42,272.2495709640207,67,271.4162166924216,0.6268656716417911,0.04082302328632459,0.9591769767136754,3.156829382344843,1,267.24580168898683,2.5165585780050606,1,3,270.78225236805156,18,268.2639010041021,0.16666666666666666,0.8274874956627349,0.17251250433726506,-1.5679242733995549,1,287.84237587975804,1.1990079233655706,0,15,290.04463633859996,42,288.84437291207723,0.35714285714285715,0.40761937188529895,0.592380628114701,0.3738155542497522,0,267.2116352514131,1.0486122304573655,1,38,269.28120190138,43,268.230424342677,0.8837209302325582,0.5221858905396837,0.47781410946031627,-0.08880187212396257
54,1,274.7508185659535,0.9163194082211703,0,14,276.68628617573995,8,275.76864054834004,1.75,0.9911183084832874,0.008881691516712545,-4.714841885153888,0,273.283008909435,2.9667216590605676,1,28,277.26974079280626,41,274.3011738046771,0.6829268292682927,0.5378403690844784,0.46215963091552165,-0.15165145153014653,0,292.54557816358283,1.5490965748904273,1,71,295.09768865734804,69,293.54738675185945,1.0289855072463767,0.754517322979952,0.24548267702004795,-1.122851854785151,0,271.7816044682404,0.9821922397240996,0,45,273.76768687169533,42,272.78368841391057,1.0714285714285714,0.802942421361495,0.19705757863850507,-1.4047870435831697
55,0,279.18697121110745,0.9489881702465937,0,78,281.1555073844502,34,280.20519220491406,2.2941176470588234,0.9954514283453867,0.00454857165461333,-5.38838306948283,0,279.7706573337782,1.0288655118783936,1,53,281.82274096342735,57,280.7920170855941,0.9298245614035088,0.45529458044679894,0.5447054195532011,0.1793004949390384,1,297.59898169129156,1.4996511613717303,0,72,300.10161121585406,51,298.60067334154155,1.411764705882353,0.9757547440313055,0.02424525596869448,-3.694990299893602,1,276.2679871178698,1.899486262933351,1,42,279.17024789273273,39,277.2697087927954,1.0769230769230769,0.847075814134461,0.15292418586553896,-1.711847918295385
56,1,283.6568328134017,4.602532497723587,0,4,289.2785146977985,22,284.6750218073139,0.18181818181818182,0.8194153248575833,0.18058467514241666,-1.5123912853377612,1,284.3237598252017,1.0819352131802589,0,12,286.4096108810045,9,285.3255786851514,1.3333333333333333,0.9767348379769689,0.023265162023031118,-3.7372581613716918,1,302.6027351638768,9.02123609778937,0,3,312.64289546373766,18,303.62038529489655,0.16666666666666666,0.859843677071627,0.14015632292837302,-1.8139922098490333,1,281.671866061748,1.2175809163600206,0,16,283.9088543395046,10,282.68991401896346,1.6,0.9941486530921656,0.00585134690783441,-5.135214870471653
57,1,291.77871617884375,0.7316561422776431,0,12,293.5302102987189,9,292.79710191302,1.3333333333333333,0.9876661965887013,0.01233380341129877,-4.383001045277943,0,288.90990164573304,2.199352811439894,0,6,292.1299094205024,26,289.9287705392344,0.23076923076923078,0.6423391712284676,0.3576608287715324,-0.5855313366184876,0,315.1442639542511,2.216815683641471,0,40,318.38051820907276,15,316.1623178374721,2.6666666666666665,0.9965739190069012,0.0034260809930988408,-5.672906275193673,0,286.4078425888438,1.3489125557243824,0,28,288.76084204833023,18,287.4100043614162,1.5555555555555556,0.9927767558777075,0.007223244122292463,-4.923201644516643
58,1,296.0318075295072,0.831653929897584,1,17,297.8664528597146,82,297.03348574775737,0.2073170731707317,0.0004377085671453118,0.9995622914328547,7.733519436470748,0,294.6304245798383,0.9991782736033201,0,40,296.64934957190417,15,295.6483050312381,2.6666666666666665,0.9945935333859037,0.005406466614096225,-5.214738386293443,0,320.8813853675965,1.915737483650446,0,12,323.80006684421096,23,321.8831133634085,0.5217391304347826,0.8769147557691341,0.12308524423086586,-1.9635326299841207,1,291.26100955414586,1.432173197856173,0,3,293.7137835919857,18,292.2798176083015,0.16666666666666666,0.7559501747925594,0.2440498252074406,-1.1306030615318479
59,0,300.3680030782707,1.0492783029330894,0,86,302.4365283480147,59,301.38609962794,1.4576271186440677,0.8510757795328022,0.1489242204671978,-1.74306358313597,1,299.1501752489712,2.2162369195139036,0,75,302.38649152836297,70,300.1685570325935,1.0714285714285714,0.4248025986443271,0.5751974013556729,0.30308870134160043,0,326.3016897540074,1.3478190273744985,1,7,328.67065954604186,54,327.3214937563753,0.12962962962962962,0.0588829964707025,0.9411170035292975,2.7715151071472515,1,296.21418655407615,0.948510936810635,0,12,298.1669428141322,9,297.21658022736665,1.3333333333333333,0.9916941665397315,0.008305833460268435,-4.78245666541755
60,0,311.96027663734276,1.149773077107966,1,60,314.1285085348645,61,312.97750168293715,0.9836065573770492,0.3352181806483501,0.6647818193516499,0.6846772902734769,1,311.9096827820176,1.93224114831537,1,87,314.8613482792862,89,312.92742298694793,0.9775280898876404,0.09822852017254613,0.9017714798274539,2.217064537008315,0,338.17748619650956,1.2316253274912015,0,53,340.4278994301567,57,339.19497237727046,0.9298245614035088,0.7501132894547742,0.24988671054522582,-1.0992165903933098,0,307.6896900194697,1.980060096597299,1,77,310.692133865552,72,308.7101956498809,1.0694444444444444,0.20384827385615745,0.7961517261438426,1.3624138169002105
61,1,316.6288755463902,4.968493111780845,0,15,322.61657730385195,42,317.64683698525187,0.35714285714285715,0.2621128887138071,0.7378871112861929,1.0350155632476914,1,317.3624070422957,1.366072811302729,1,55,319.74820484383963,95,318.3804542092839,0.5789473684210527,0.0027345233387081613,0.9972654766612918,5.899059871327482,1,342.9299972029403,1.2827165643684566,1,14,345.2316506113857,57,343.947683679522,0.24561403508771928,0.07359150794951375,0.9264084920504863,2.5327856355407006,0,313.1925068029668,1.0994861839571968,1,24,315.3119226186536,90,314.21063219208736,0.26666666666666666,8.519313464683265e-07,0.9999991480686535,13.975759040694596
62,0,325.1177174493205,1.332496594521217,0,53,327.4695629363414,15,326.13578002376016,3.533333333333333,0.9986969386309206,0.001303061369079415,-6.6417349725609425,1,322.24921935994644,0.9315268783830106,1,10,324.2011353257112,44,323.2678318590624,0.22727272727272727,0.1345482523170276,0.8654517476829724,1.8613287342707896,0,347.7324553502258,1.5323953799670562,0,12,350.2677884022705,3,348.7341628029244,4.0,0.9911459637888373,0.00885403621116261,-4.717988388767471,0,317.812566567678,1.1325899078510702,0,22,319.9646641825093,31,318.83029334049206,0.7096774193548387,0.6704518905215202,0.32954810947847984,-0.7102295976952612
63,1,329.9707113780314,1.2992249698145315,0,54,332.28994104114827,31,330.98933612403926,1.7419354838709677,0.9816277416300658,0.018372258369934148,-3.9783703250321727,0,326.70522657525726,1.5993609497090802,0,77,329.3213653618004,72,327.72027641616296,1.0694444444444444,0.39145557990689284,0.6085444200931072,0.4411978613860151,1,352.7695839535445,1.5166138865752146,0,62,355.3050785853993,43,353.7871977390023,1.441860465116279,0.9794773504535463,0.020522649546453657,-3.8654899813725807,0,322.465380822774,0.9493974532233551,0,6,324.43467709305696,26,323.4834935700055,0.23076923076923078,0.39013479391218986,0.6098652060878101,0.4467456542976888
64,0,334.7933053788729,2.650547791272402,1,55,338.46087712980807,60,335.8090979339322,0.9166666666666666,0.28615586158573125,0.7138441384142687,0.9141280120158486,0,331.82210807607044,3.9510207581333816,0,45,336.7937099211849,42,332.8402141071856,1.0714285714285714,0.8112965666685377,0.18870343333146233,-1.4584570206388454,0,357.80620055808686,1.482639053487219,1,54,360.3083733924432,80,358.8244788357988,0.675,0.12182297071292836,0.8781770292870716,1.9752792700041055,1,326.9352819311898,1.532690885476768,1,15,329.48823548469227,56,327.95338124630507,0.26785714285714285,0.0012255525012554447,0.9987744474987446,6.703137211127154
65,0,340.96145431359764,2.333192296558991,1,15,344.29781065206043,42,341.9632929265499,0.35714285714285715,0.2621128887138071,0.7378871112861929,1.0350155632476914,1,339.29596690344624,1.2492738782893866,0,33,341.5632196032675,25,340.312007951783,1.32,0.955312349984771,0.04468765001522896,-3.0623411776197806,0,362.8095467230305,1.966513462131843,0,22,365.79558448446915,31,363.8278372475179,0.7096774193548387,0.8572987224700661,0.1427012775299339,-1.7930329485051426,0,331.9886578046717,1.1967576569877565,0,12,334.2079979267437,3,333.0092203237582,4.0,0.9981794639167547,0.0018205360832453112,-6.306802074758334
66,1,346.7988883779617,0.8318550158292055,1,15,348.6509562841384,56,347.8177691232413,0.26785714285714285,0.031200574986412932,0.9687994250135871,3.435621075037657,0,344.06385881162714,1.2986398846842349,0,51,346.36650145228487,7,345.0656318444526,7.285714285714286,0.9993897363026977,0.0006102636973023351,-7.4010089535640535,1,368.29763959068805,1.5324704415397719,0,46,370.84828796447255,40,369.3145402914379,1.15,0.9420570074420423,0.05794299255795763,-2.788606149935104,1,336.70828869147226,1.0152165564941242,1,54,338.7272460786626,78,337.7100802921923,0.6923076923076923,0.0016991103675877417,0.9983008896324123,6.37594992258699
67,0,351.15178867720533,1.9666256592608988,1,38,354.13790347555187,43,352.17000809079036,0.8837209302325582,0.6542460970323919,0.3457539029676081,-0.6377563169417728,0,348.8667444146704,2.516289936727844,0,22,352.4030607730383,31,349.88511395140085,0.7096774193548387,0.7660539901774177,0.23394600982258232,-1.1861622890349475,0,373.34937951748725,2.949898785445839,0,86,377.3026778009953,59,374.35150296927895,1.4576271186440677,0.980101341667999,0.019898658332001037,-3.897003667228369,0,341.2280563482782,1.3658409107010812,0,60,343.6132331143599,40,342.2464140332304,1.5,0.9850570704345478,0.01494292956545221,-4.188461329820973
68,1,356.6385493999114,0.8825859574135393,1,24,358.5243274484528,69,357.6404117165366,0.34782608695652173,0.007081982726757308,0.9929180172732427,4.943094185333352,0,354.9038406230975,1.1827420853078365,1,71,357.10680784564465,69,355.92226665338967,1.0289855072463767,0.37942067210138797,0.620579327898612,0.4920078992814367,1,379.8038388846908,2.200174537836574,1,28,383.0235001911642,82,380.8220089157112,0.34146341463414637,0.0092663179356548,0.9907336820643452,4.672059663171768,0,346.11434363014996,0.9990743724629283,1,71,348.1335882265121,69,347.1324848217191,1.0289855072463767,0.18086992415892011,0.8191300758410799,1.5104647721461704
69,0,361.0254786555888,0.9822131779510528,0,80,363.0266989984084,60,362.0432540208567,1.3333333333333333,0.7484729843041309,0.25152701569586916,-1.0904847080495594,1,359.6073008815292,1.6492832017829642,0,45,362.27659549261443,40,360.6256443442544,1.125,0.8542770947990047,0.14572290520099526,-1.7685486993246238,0,385.5241785105318,1.4157335330964997,1,87,387.94307806086726,85,386.5261079875054,1.0235294117647058,0.6009294791032755,0.3990705208967244,-0.40933944301345004,1,350.63449686637614,1.0991124564316124,1,42,352.7534785103053,67,351.6524859595811,0.6268656716417911,0.004488384330315953,0.995511615669684,5.4017639919616
70,1,365.528746203403,0.8134534792043269,1,43,367.36293128784746,97,366.54819860181306,0.44329896907216493,0.0002689275607844488,0.9997310724392156,8.220799541663549,0,364.77730423165485,1.4643512944458053,1,37,367.2471844017273,52,365.7808514825301,0.7115384615384616,0.31433466091423024,0.6856653390857698,0.7799314473554976,1,390.4445457116235,1.0982409523567185,1,26,392.5467048769351,84,391.4477690126514,0.30952380952380953,0.005859805861685441,0.9941401941383146,5.133761763456997,1,355.25401381764095,8.420352583867498,1,40,364.695028871065,93,356.2725536255166,0.43010752688172044,4.503421324075774e-06,0.9999954965786759,12.310668652394728
71,0,369.86415044544265,0.998788743512705,0,9,371.8826298090862,7,370.88248324149754,1.2857142857142858,0.9888531750533622,0.011146824946637792,-4.485391163411517,0,369.7470540317008,1.3828075864585117,1,45,372.13337805424817,92,370.74880494119134,0.4891304347826087,0.00184425310914349,0.9981557468908565,6.293834946505613,1,395.0478635901818,1.6328170677879825,0,45,397.69997226668056,40,396.0659704115242,1.125,0.9367592765042105,0.06324072349578949,-2.695477887731667,0,367.19544803048484,1.6831557139521465,1,59,369.8983725865837,65,368.21323840809055,0.9076923076923077,0.08991429651072658,0.9100857034892734,2.3146818190850156
72,1,374.383829608676,1.6322770197875798,1,87,377.03623497579247,89,375.4027146997396,0.9775280898876404,0.034860893356050915,0.9651391066439491,3.3209065761827583,0,374.633899929584,1.315913522732444,1,55,376.95342470309697,60,375.63563898717985,0.9166666666666666,0.38403522594127104,0.615964774058729,0.47245549432634076,1,400.20116495527327,2.4164608399150893,0,74,403.63721172406804,60,401.2194503439823,1.2333333333333334,0.9335001686978249,0.06649983130217511,-2.641741732847966,1,372.3989323877031,1.0493750928435475,0,72,374.468359976192,51,373.4170024683699,1.411764705882353,0.9613679657444497,0.03863203425555029,-3.2142753991955724
73,1,379.53710094909184,2.0162851959466934,0,94,382.55692786502186,46,380.5394306225935,2.0434782608695654,0.9901820195802277,0.009817980419772311,-4.613673343076151,1,379.454165837029,0.9827559913974255,1,54,381.45642874529585,78,380.4718890542863,0.6923076923076923,0.03391901607140779,0.9660809839285922,3.3492718618190267,1,406.13812352437526,1.3328888899413869,1,75,408.490628367872,70,407.15644999954384,1.0714285714285714,0.7953762124788573,0.20462378752114274,-1.3576421156597291,0,376.96869340748526,1.9165007411502302,0,56,379.9053098540753,59,377.9868006238248,0.9491525423728814,0.2234890647442157,0.7765109352557843,1.24544823970241
74,1,385.0580601092661,1.0489784518722445,1,10,387.12648266309407,44,386.07616574538406,0.22727272727272727,0.14444127001696117,0.8555587299830388,1.7788817518021964,1,383.95702805253677,4.06757277820725,0,4,389.04453480802476,22,384.9748824299313,0.18181818181818182,0.737638815818179,0.26236118418182097,-1.0337321753486806,1,410.99123755155597,0.8819155391538516,0,32,412.87727989582345,16,411.99439645768143,2.0,0.9917573566483115,0.00824264335168841,-4.790157389627017,1,382.40570610004943,1.298325811396353,0,58,384.72448104817886,6,383.4243217596086,9.666666666666666,0.9999963581341251,3.641865874917054e-06,-12.523010762779965
75,1,389.6276658702409,1.0156278148060665,1,75,391.66252405918203,70,390.6455660746433,1.0714285714285714,0.26402428034380576,0.7359757196561942,1.025156058670638,1,391.5450878931442,1.1997786869760603,0,94,393.76453942235094,46,392.56300587544683,2.0434782608695654,0.9936431512850522,0.00635684871494781,-5.05184536998069,0,415.37925757013727,0.931651322520338,0,62,417.3298595637316,17,416.396890713484,3.6470588235294117,0.9994167332357885,0.0005832667642115171,-7.446282467790935,1,387.2254560581641,0.899198658647947,0,14,389.1444843983045,8,388.2432215468725,1.75,0.9952266499268169,0.004773350073183172,-5.339922120279797
76,1,394.1638060314581,6.753082659328356,0,26,401.9366713599302,84,395.18231146910693,0.30952380952380953,0.000639104991526751,0.9993608950084732,7.354802501788655,0,396.26483571797144,1.4157121997559443,0,87,398.68375620641746,76,397.26666998525616,1.144736842105263,0.44980252019230227,0.5501974798076977,0.20146862555075548,0,419.83146943652537,1.099343171925284,1,24,421.9494800209068,90,420.8488588273758,0.26666666666666666,0.002136697216960859,0.9978633027830391,6.14635501549892,0,391.64500153285917,1.0321109362412244,0,9,393.6971116315108,7,392.6632612426765,1.2857142857142858,0.9921195606846106,0.007880439315389402,-4.835459971906302
77,1,404.437583555351,1.4158362488960847,0,15,406.8563961922191,19,405.4393597486196,0.7894736842105263,0.9482815245726772,0.05171847542732276,-2.908836348978676,1,401.18497496901546,1.5660383619833738,0,42,403.77075609902386,39,402.20331566629466,1.0769230769230769,0.8409910811346943,0.15900891886530566,-1.665620760705468,1,424.45054826536216,1.3493325052550063,1,25,426.81948289694265,37,425.46887908608187,0.6756756756756757,0.7766207276396577,0.2233792723603423,-1.2460810074804458,1,396.19807795027737,1.2824996759882197,0,41,398.4839684331091,7,397.19966135383584,5.857142857142857,0.9999381035701775,6.189642982246819e-05,-9.68998615812684
78,1,409.3581044351449,2.5331266375724226,0,25,412.90999171952717,37,410.3755850850139,0.6756756756756757,0.6511705880421756,0.34882941195782435,-0.6241886361320298,0,406.2720392564079,0.9489538000198081,0,60,408.24047784972936,40,407.2902081023203,1.5,0.9551445498345746,0.04485545016542534,-3.058417589134848,1,429.3211050166283,1.083402864052914,0,6,431.42280314594973,8,430.3385070494842,0.75,0.9698397165494903,0.030160283450509674,-3.470604875851016,0,400.9846953449305,1.6822454939829186,1,15,403.6872461733874,42,402.00320275779814,0.35714285714285715,0.04123608056131434,0.9587639194386857,3.1463312559985837
79,1,415.4115296911914,0.9658426488749683,0,74,417.3966050845338,60,416.4294804633828,1.2333333333333334,0.647798823758578,0.352201176241422,-0.6093776552338623,1,410.74194234015886,1.8492297894554213,0,41,413.6102966275066,7,411.7597809151048,5.857142857142857,0.998559173290135,0.001440826709864971,-6.541096360357237,1,433.92397687153425,0.91578726132866,1,15,435.8584686811082,56,434.94151401508134,0.26785714285714285,0.09096286617603644,0.9090371338239636,2.301934585398097,0,406.1884542693151,1.3326660755556077,1,87,408.5410468162736,85,407.2064481031848,1.0235294117647058,0.04116531002153423,0.9588346899784658,3.148122770611329
80,0,426.90314847650006,0.9155126940459013,0,12,428.8376865081955,3,427.92087287886534,4.0,0.9955563781495606,0.004443621850439457,-5.411831978902213,0,423.11722836410627,2.7167003258364275,0,62,426.85317091597244,17,424.1351783463033,3.6470588235294117,0.9988835167841359,0.0011164832158641123,-6.79645441266266,1,445.36562046664767,2.1467441460117698,0,15,448.53373108047526,19,446.3857097029686,0.7894736842105263,0.9423403323641221,0.057659667635877966,-2.793808568351099,0,418.06354473822284,0.982100190478377,1,55,420.06500962364953,60,419.08125175803434,0.9166666666666666,0.1609455152645367,0.8390544847354633,1.6512097512452655
81,0,431.33882309810724,1.4997578277252614,1,7,433.857506313012,54,432.35645979701076,0.12962962962962962,0.023335816517861097,0.9766641834821389,3.7341535009171594,1,429.3538911117939,1.4657786489697173,0,46,431.8396302073961,36,430.372376006213,1.2777777777777777,0.9223507236891755,0.07764927631082447,-2.4747233160168616,0,451.0347586335847,1.0828118530334905,0,53,453.1370307862526,15,452.0528551833704,3.533333333333333,0.9989765721367044,0.0010234278632955214,-6.8835736838383434,0,422.5660525842104,1.5327359224902466,1,35,425.1183428305667,62,423.5837078510085,0.5645161290322581,0.00552240698390305,0.994477593016097,5.193403754080019
82,1,436.35925248172134,1.6665232595987618,0,62,439.04445935133845,43,437.3767248353688,1.441860465116279,0.9283878296046946,0.07161217039530547,-2.562184528204564,0,434.3405119830277,1.3656105902045965,0,12,436.725738131674,23,435.3588017174043,0.5217391304347826,0.8273007157336496,0.17269928426635045,-1.5666164105712443,1,455.63848658523057,0.9484568134648725,0,14,457.606370513211,8,456.65672022104263,1.75,0.9854517717840572,0.014548228215942795,-4.215630973478506,0,427.61883665656205,1.0489934640936553,0,86,429.68791698664427,59,428.6371244157199,1.4576271186440677,0.9646228157191448,0.035377184280855206,-3.305670059879346
83,0,441.5456504597096,1.6827144310809672,1,45,444.2476920548361,60,442.56361387390643,0.75,0.15239058125353688,0.8476094187464631,1.7159731000420113,0,439.2275838556234,0.9654993410222232,1,24,441.2125229530502,90,440.2456788250711,0.26666666666666666,0.00041386378376440103,0.9995861362162356,7.789559713554122,0,460.10766947316006,0.7153642302146181,1,9,461.84289064398035,7,461.12612157757394,1.2857142857142858,0.9799193272304266,0.02008067276957338,-3.887712450400492,1,432.1886312565766,1.216035833582282,1,24,434.4246089687804,69,433.2067044976866,0.34782608695652173,0.00017675837302832953,0.9998232416269717,8.640550108158363
84,1,446.7491980266059,0.9824478439986706,1,54,448.75111249112524,78,447.7673949217424,0.6923076923076923,0.01661319428657093,0.9833868057134291,4.080805321691275,1,443.7139285793528,0.9152282504364848,1,25,445.6483666606946,37,444.7317762407474,0.6756756756756757,0.6257111531803663,0.37428884681963376,-0.513861030939659,0,464.34361676569097,1.3493799124844372,0,80,466.6961208190769,60,465.3452546877088,1.3333333333333333,0.9608535140219336,0.03914648597806631,-3.2005113060685835,1,436.9254808679689,4.9681142484769225,1,87,442.91340939037036,89,437.9436659113271,0.9775280898876404,0.015301976085253854,0.9846980239147461,4.164353043505185
85,0,451.2522431551479,1.7992107475874946,0,62,454.07085336290766,17,452.27040686516557,3.6470588235294117,0.9991073758318747,0.0008926241681253231,-7.020451907243066,1,448.1495988552924,1.7138740608934313,0,32,450.8685439166147,16,449.15342067345046,2.0,0.9875285388742572,0.012471461125742862,-4.3717624723851,0,469.1970993846189,2.6168617476942018,0,37,472.8335818265332,52,470.2153555388795,0.7115384615384616,0.5738993226826099,0.42610067731739015,-0.2977783348341685,1,445.41474943666253,0.8477305338019505,0,54,447.26637368951924,31,446.4176882938482,1.7419354838709677,0.9961841009573534,0.0038158990426466095,-5.564755783915799
86,0,456.57236684078816,1.1492914978880435,1,53,458.74064575054217,57,457.5900884778239,0.9298245614035088,0.3635285878683031,0.6364714121316969,0.560081562808945,0,453.36966035841033,1.865486541064456,0,53,456.2387139033526,15,454.37181581009645,3.533333333333333,0.9982257909168547,0.0017742090831453477,-6.3326247574623045,0,475.3344169850461,1.01620499859564,0,78,477.36994638235774,65,476.35239146091044,1.2,0.9109784561279286,0.08902154387207134,-2.325640841965874,1,449.7675217362121,1.265864456188865,1,15,452.05369824310765,42,450.78577235969715,0.35714285714285715,0.04123608056131434,0.9587639194386857,3.1463312559985837
87,0,461.2424219439272,22.880641468102112,1,35,485.14159136801027,62,462.2597544459859,0.5645161290322581,0.05412768301746673,0.9458723169825333,2.860761832609597,1,458.73981177725364,4.117850979906507,0,16,463.8609231938608,10,459.741760217119,1.6,0.9806624091934766,0.019337590806523447,-3.926177359311529,0,479.87089176278096,1.4664486721158028,0,41,482.35659490781836,22,480.88871848594863,1.8636363636363635,0.9918534029897886,0.00814659701021136,-4.801975021822937,0,454.5543686612509,1.1658883969066665,1,45,456.73982718458865,92,455.5721088660648,0.4891304347826087,1.2396408504145029e-05,0.9999876035914959,11.298091367583268
88,1,487.6430455868831,1.6825481104897335,1,19,490.34491098485887,37,488.66115201311186,0.5135135135135135,0.5357094951966455,0.46429050480335454,-0.14308158331633172,0,466.36169830313884,2.333077333983965,0,96,469.69828259176575,89,467.36364239733666,1.0786516853932584,0.19105907741126693,0.8089409225887331,1.443143203122178,1,484.857252288959,2.100425638491288,0,33,487.9772362021031,25,485.8755428134464,1.32,0.9745132786641912,0.025486721335808746,-3.6437805603779454,1,459.2404549361672,1.3994258187012747,0,74,461.6596772511257,60,460.2583168197889,1.2333333333333334,0.7740224415239645,0.2259775584760355,-1.2311651718231795
89,1,492.84657853643876,0.9306150780757889,0,33,494.79862171190325,25,493.86652792128734,1.32,0.9652204373551585,0.034779562644841555,-3.3233265738015,1,472.19930777454283,1.532552614226006,0,14,474.7516687368043,8,473.21763780515175,1.75,0.9831147687797965,0.01688523122020341,-4.064286519355944,0,490.4779895830434,1.8494774925056845,0,38,493.3304766487563,43,491.47978434420656,0.8837209302325582,0.8362260281672546,0.16377397183274545,-1.630411688490112,0,464.15964525123127,0.9649798361351714,1,45,466.1287645342527,60,465.16211477620527,0.75,0.040378201112034606,0.9596217988879654,3.1682491844391842
90,0,497.29943395685405,1.2657866292865947,0,12,499.58500799606554,23,498.31796072772704,0.5217391304347826,0.8789362957965654,0.12106370420343454,-1.9823955334879801,1,477.2540505583165,2.616818291018717,0,74,480.88901241123676,60,478.2708781728288,1.2333333333333334,0.7615830930279331,0.23841690697206683,-1.16137843276661,1,495.83164010278415,2.499909135978669,0,46,499.3342245904496,36,496.83337916038,1.2777777777777777,0.9657592227974053,0.03424077720259467,-3.3394973016917744,1,468.62990230938885,1.1157804663525894,1,88,470.76522603794,96,469.64778671145905,0.9166666666666666,0.00304546345307366,0.9969545365469263,5.791052077750049
91,0,502.08623228943907,1.2653378401882946,0,51,504.3715210946975,7,503.10481160343625,7.285714285714286,0.9996116210374951,0.0003883789625049002,-7.853140533121403,0,483.39007117424626,1.148963597486727,0,78,485.5586858856259,34,484.4082313287072,2.2941176470588234,0.9960753091908245,0.0039246908091754296,-5.536535292964452,1,501.8357720435597,1.2823049111757427,1,40,504.13761903182603,93,502.85401595092844,0.43010752688172044,0.006246479496870516,0.9937535205031295,5.069471184061392,0,473.2657502836082,1.7996018577832729,0,62,476.06906808319036,17,474.26743205741514,3.6470588235294117,0.9999675310319855,3.2468968014433166e-05,-10.335193285599429
92,1,506.872412351775,0.8825061550596729,0,6,508.7746269045165,8,507.89082534518093,0.75,0.9832648269370979,0.01673517306290211,-4.073365814732957,0,488.0597865249729,3.899717768537812,1,80,492.9803804910043,60,489.07937284896616,1.3333333333333333,0.8425501231864004,0.1574498768135996,-1.6773259886907,0,506.6387394241756,2.1501918415306136,0,50,509.80824223230593,7,507.6567336531589,7.142857142857143,0.9995500712093764,0.0004499287906236008,-7.7059712007413745,1,478.56998146371916,0.932244308758527,1,37,480.52227155212313,54,479.5881736181909,0.6851851851851852,0.0542931113720565,0.9457068886279435,2.857535321653535
93,1,511.2755568777211,1.3322627187008038,1,43,513.6271961429156,93,512.2936905630631,0.46236559139784944,0.0005338230088079987,0.999466176991192,7.534912252580581,1,495.4812302667415,1.7664471708703786,1,17,498.25071506004315,82,496.48303687979933,0.2073170731707317,0.0007833621263159118,0.9992166378736841,7.151131814055906,1,512.3090149711352,4.935373585205525,0,4,518.2637465352891,22,513.3271561627043,0.18181818181818182,0.7951461799903082,0.2048538200096918,-1.356229320295799,0,483.0228842914803,1.9323825801257044,0,41,485.95889787515625,22,484.0245510529494,1.8636363636363635,0.9972105643181651,0.002789435681834863,-5.879122634774881
94,0,516.1284295227379,1.5322764667216688,1,68,518.6638585745823,63,517.130349123152,1.0793650793650793,0.40464568956902625,0.5953543104309738,0.3861448643939695,1,500.7518101686146,1.4490640219300985,1,19,503.2200962684583,37,501.7698059778195,0.5135135135135135,0.49947836894313924,0.5005216310568608,0.0020865249844315733,0,520.7652280132752,2.2162894625216722,1,45,524.0003930854145,92,521.7828034777194,0.4891304347826087,0.011361401291532736,0.9886385987084673,4.466107085105031,1,488.4596461203182,0.9321688520722091,1,43,490.41230163990986,93,489.47828785388265,0.46236559139784944,7.09894823058832e-06,0.9999929010517694,11.855556822453734
95,0,521.1657856811071,1.098815370700322,1,37,523.2839463886339,52,522.183826527209,0.7115384615384616,0.2717672727385406,0.7282327272614594,0.9856745922972479,1,505.7216524129035,1.4151196086313576,0,66,508.14031729707494,59,506.7238517163787,1.11864406779661,0.6521479477039058,0.3478520522960942,-0.628494197544045,0,526.5019196002977,1.7663314180681482,0,14,529.2876208490925,7,527.5200449895347,2.0,0.9872997719221639,0.012700228077836107,-4.353353761417673,0,492.9124659852823,1.1657359034288675,0,62,495.0817771888105,17,493.9144199559232,3.6470588235294117,0.9999675310319855,3.2468968014433166e-05,-10.335193285599429
96,1,525.7852252004668,1.382793759345077,0,3,528.1874903209973,18,526.8033363673603,0.16666666666666666,0.8926494272644022,0.10735057273559775,-2.1180940656179916,1,510.6412867762847,0.9988736817613244,1,42,512.6429025748512,67,511.64302385854535,0.6268656716417911,0.06442480809243978,0.9355751919075602,2.675662740895425,0,531.7887199082179,1.6471206389833242,0,60,534.441458311514,40,532.7930185646983,1.5,0.9835752018093123,0.016424798190687612,-4.09240182078321,0,497.58240296517033,1.3957430619047955,0,51,500.00146607053466,7,498.6040029139258,7.285714285714286,0.9999864217209368,1.3578279063257304e-05,-11.207025591320757
97,0,530.6884052817477,0.7823685158509761,1,59,532.4900179989636,65,531.7063821280608,0.9076923076923077,0.1898863073906465,0.8101136926093535,1.4507490881589404,0,515.1442303742515,1.5490780071122572,1,7,517.696841410012,54,516.1464474553941,0.12962962962962962,0.024849337180425368,0.9751506628195746,3.6697609056617266,0,536.9423128280323,1.4158816809067503,1,56,539.3780561902095,59,537.960765722557,0.9491525423728814,0.7508509405570989,0.2491490594429011,-1.1031558011252836,0,502.5022862168262,1.2989891184261069,0,95,504.82178333599586,16,503.5206253337674,5.9375,0.9999998313568937,1.686431063078394e-07,-15.595480983362823
98,0,534.991249008337,1.0160129991127178,1,71,537.02666976396,64,536.009402446798,1.109375,0.42139164446432087,0.5786083555356791,0.3170631602568327,1,520.2002104884014,22.27999578078743,0,15,543.4969655381283,42,521.2157336121891,0.35714285714285715,0.24577379319858317,0.7542262068014168,1.1212807589816043,1,541.8787795465905,2.1661297790706158,0,97,545.0480634910055,61,542.8807315418962,1.5901639344262295,0.9904910651232984,0.009508934876701548,-4.645968975587832,1,507.3221294092946,2.13294704281725,0,6,510.47541852737777,8,508.34035316854715,0.75,0.9841137975108787,0.015886202489121266,-4.1262905737246625
99,0,539.5278371685417,1.1153221958084032,1,45,541.6627456883434,92,540.5461308535887,0.4891304347826087,0.0007437426882279663,0.999256257311772,7.2030714127047215,1,545.99837709032,0.9651619591750205,1,15,547.966704671504,56,547.0001987155993,0.26785714285714285,0.035849336615815686,0.9641506633841843,3.291922509782051,1,547.549186648801,2.283876462955959,0,42,550.8522441033274,39,548.5674617659533,1.0769230769230769,0.9278294515697361,0.07217054843026398,-2.5538158890605263,0,512.9760822295211,2.032585009234026,0,12,516.0122591314139,23,513.9779658793705,0.5217391304347826,0.7730564404109319,0.2269435595890681,-1.2256507102890533
