,self_acceptUp,self_cue_times,self_decision_times,self_decisions,self_punishment_values,self_response_times,self_reward_values,self_trial_times,self_punishment_reward_ratio,self_prob_reject,self_prob_accept,self_SV,harm_other_acceptUp,harm_other_cue_times,harm_other_decision_times,harm_other_decisions,harm_other_punishment_values,harm_other_response_times,harm_other_reward_values,harm_other_trial_times,harm_other_punishment_reward_ratio,harm_other_prob_reject,harm_other_prob_accept,harm_other_SV,harm_self_acceptUp,harm_self_cue_times,harm_self_decision_times,harm_self_decisions,harm_self_punishment_values,harm_self_response_times,harm_self_reward_values,harm_self_trial_times,harm_self_punishment_reward_ratio,harm_self_prob_reject,harm_self_prob_accept,harm_self_SV,other_acceptUp,other_cue_times,other_decision_times,other_decisions,other_punishment_values,other_response_times,other_reward_values,other_trial_times,other_punishment_reward_ratio,other_prob_reject,other_prob_accept,other_SV
0,0,0.00340344849973917,4.192990752402693,0,78,5.222252510022372,34,1.027287638746202,2.2941176470588234,0.8544319758570444,0.14556802414295558,-1.7697933951909177,1,0.003691843245178461,2.225281836465001,0,54,3.253510905429721,31,1.026353715453297,1.7419354838709677,0.9985349022565779,0.0014650977434220972,-6.524367147630715,1,0.004463791847229004,2.4586173822171986,1,33,3.4872055612504482,25,1.0266381590627134,1.32,0.6129737166452485,0.3870262833547515,-0.45982945204972275,1,0.0032734740525484085,1.9263484212569892,1,46,2.9530545310117304,40,1.0252992981113493,1.15,0.30636134003053206,0.6936386599694679,0.8171859069759803
1,0,7.722262781579047,1.2998776100575924,1,71,10.04101600125432,69,8.740004566963762,1.0289855072463767,0.024757134610666087,0.9752428653893339,3.6735728181150766,1,5.754050163086504,1.1993259475566447,1,19,7.973532112315297,37,6.772283404134214,0.5135135135135135,0.0053987065075074,0.9946012934924926,5.216182557564862,0,5.987630646675825,1.383766399230808,0,62,8.390252506826073,17,7.005431295838207,3.6470588235294117,0.999985392027786,1.4607972213963145e-05,-11.133928528145516,1,5.45399635611102,0.8491788269020617,1,88,7.306512261275202,96,6.456041190773249,0.9166666666666666,0.0006480916095086275,0.9993519083904914,7.340830197194021
2,1,12.543776291422546,1.6661242484115064,0,58,15.227922422811389,6,13.560010524466634,9.666666666666666,0.9871094495663213,0.012890550433678658,-4.33828640601739,1,10.473930333275348,3.4162218286655843,1,66,14.894499015528709,59,11.476478475611657,1.11864406779661,0.7710320187725218,0.22896798122747816,-1.2141477277776929,0,10.892072157002985,2.6002719597890973,1,14,14.511046294588596,57,11.908772561699152,0.24561403508771928,1.0409612563044846e-06,0.9999989590387437,13.775364945829308,0,9.80749833304435,1.114916863385588,1,35,11.926197508350015,62,10.810429289005697,0.5645161290322581,3.640288913642209e-05,0.9999635971108636,10.220826011039895
3,0,17.728514223825186,1.2827244657091796,1,71,20.031619085464627,64,18.746782624628395,1.109375,0.048998660535973015,0.951001339464027,2.9657225092874815,0,17.395378025714308,1.2324782637879252,1,35,19.647516489960253,62,18.413231613114476,0.5645161290322581,0.00021049819547358517,0.9997895018045264,8.465822957097297,0,17.01172263873741,2.582478421740234,0,78,20.597811916377395,34,18.013790387194604,2.2941176470588234,0.9999867004210028,1.3299578997226944e-05,-11.227764877913977,1,14.427415085956454,1.0324894045479596,1,3,16.479163308627903,18,15.445297117345035,0.16666666666666666,0.0077957531201102714,0.9922042468798897,4.846349866487525
4,1,22.53315745200962,0.8660340956412256,1,53,24.41775347897783,55,23.549874844495207,0.9636363636363636,0.04985414792948151,0.9501458520705185,2.947513800145067,1,22.148536536842585,1.1496924846433103,1,14,24.31794571550563,57,23.16645649448037,0.24561403508771928,2.6550368150690673e-06,0.9999973449631849,12.839049382010137,1,23.09868816100061,1.7657830738462508,0,98,25.868494139052927,73,24.10083887213841,1.3424657534246576,0.9985594506790344,0.001440549320965583,-6.541289177334063,0,18.979894961230457,3.0168766020797193,1,96,22.99955042079091,89,19.981539599597454,1.0786516853932584,0.038075587237544894,0.9619244127624551,3.2293625527252776
5,0,26.918657773174345,1.0146188298240304,1,60,28.937202321365476,61,27.920744088944048,0.9836065573770492,0.035280052871574985,0.964719947128425,3.3085201192253604,1,26.818136924877763,2.6668452341109514,0,56,30.504856877494603,46,27.836442461702973,1.2173913043478262,0.9190765116469319,0.08092348835306806,-2.4298652541845875,1,28.369558432605118,1.9831518423743546,1,56,31.37244632700458,46,29.387578735593706,1.2173913043478262,0.8212775388113824,0.17872246118861757,-1.525026995611167,1,25.500894417986274,0.9986868179403245,1,53,27.50252048810944,55,26.50256315479055,0.9636363636363636,0.026038335275118785,0.9739616647248812,3.6218020584994197
6,0,31.438269775826484,1.7324581160210073,1,56,34.17426210548729,59,32.439963401295245,0.9491525423728814,0.035418032181188,0.964581967818812,3.3044737394159327,1,33.00597924506292,2.8666804148815572,0,46,36.89278563670814,40,34.02416626363993,1.15,0.8132744673238395,0.18672553267616052,-1.4714288517887988,1,33.87321076961234,1.015622679144144,1,17,35.90863152500242,82,34.89129349216819,0.2073170731707317,2.8929287854140284e-09,0.9999999971070712,19.6609964245346,0,30.00374596659094,4.102343263570219,0,80,35.12554834457114,60,31.02191283693537,1.3333333333333333,0.8291050913391814,0.17089490866081858,-1.5792981175630123
7,0,36.67428896948695,1.3154967334121466,0,50,38.99418193940073,7,37.67647247062996,7.142857142857143,0.9743825157624252,0.025617484237574848,-3.6385288568086454,0,39.394090917892754,1.4328199122101068,1,14,41.846323722507805,57,40.411698777228594,0.24561403508771928,2.6550368150690673e-06,0.9999973449631849,12.839049382010137,0,38.40938964672387,1.1999572543427348,0,87,40.62875663302839,85,39.42694496316835,1.0235294117647058,0.5165215515855738,0.4834784484144262,-0.06611027411263301,1,37.62583594862372,2.6339892130345106,1,15,41.278907388448715,19,38.643645289354026,0.7894736842105263,0.10299854077457904,0.897001459225421,2.164342667949483
8,1,41.49466588906944,2.05007711565122,1,6,44.56429653894156,8,42.51247997023165,0.75,0.6051397729017838,0.3948602270982162,-0.4269276141053847,1,44.34700441220775,1.615090690087527,0,46,46.965912179555744,36,45.34907295042649,1.2777777777777777,0.9378362032210935,0.06216379677890648,-2.7138025253903297,1,43.12898300308734,1.599151567555964,1,50,45.73170710494742,62,44.130819640588015,0.8064516129032258,0.01029631405138487,0.9897036859486151,4.56561961910481,1,43.78012062003836,3.350352552253753,0,53,48.14967391686514,40,44.79811010835692,1.325,0.7158774855434611,0.28412251445653897,-0.9241035086723327
9,1,47.06516764778644,0.9990301257930696,1,14,49.08429728168994,57,48.08344316016883,0.24561403508771928,0.0025943593913050345,0.997405640608695,5.951817924961852,0,49.46677341219038,2.8493901840411127,0,40,53.320099191740155,15,50.468964024446905,2.6666666666666665,0.9994705097436013,0.0005294902563987261,-7.543066164119521,1,48.232627991586924,1.732065030373633,0,16,50.98556921957061,10,49.25133846607059,1.6,0.38492603315341134,0.6150739668465887,0.46869133771917243,0,50.65133593790233,0.9657707479782403,0,51,52.63618338108063,7,51.669111303053796,7.285714285714286,0.9999703963856861,2.9603614313908317e-05,-10.427584494836378
10,1,51.584409083705395,1.1992473299615085,1,46,53.7876607500948,36,52.586370560806245,1.2777777777777777,0.3216724093007788,0.6783275906992212,0.7460966781130238,1,55.82111291773617,2.1165136992931366,0,97,58.95736661972478,61,56.8390889740549,1.5901639344262295,0.9999122693344199,8.77306655801061e-05,-9.341151320650987,1,53.48602748988196,0.9330672202631831,1,24,55.43877861415967,69,54.50375505303964,0.34782608695652173,7.608412526671771e-07,0.9999992391587473,14.088840343595033,1,55.1373863411136,1.0655010789632797,1,54,57.20597719075158,78,56.139238385949284,0.6923076923076923,3.220247751167804e-05,0.9999677975224883,10.343434964021263
11,0,56.28767655277625,1.4161013346165419,1,86,58.72359927231446,59,57.30574623821303,1.4576271186440677,0.22947629926378388,0.7705237007362161,1.2112706615038369,0,61.45831358060241,2.9505427344702184,1,22,65.4287278726697,31,62.47621496999636,0.7096774193548387,0.07543702436188393,0.9245629756381161,2.506022973323156,1,57.93919184803963,2.050166794564575,0,46,61.008699238765985,36,58.9567226707004,1.2777777777777777,0.7853688330349627,0.21463116696503728,-1.2972324059569187,1,59.70727061992511,1.2158331675454974,0,62,61.94256013631821,43,60.72545250272378,1.441860465116279,0.9049711962215058,0.09502880377849418,-2.2537230725000965
12,0,61.22573734121397,2.700489400885999,1,6,64.94501227838919,26,62.24279014067724,0.23076923076923078,0.10704054415072439,0.8929594558492756,2.12133349767396,0,67.92892066249624,3.1505106552504003,1,60,72.08306034654379,61,68.93052026350051,0.9836065573770492,0.2496954422848131,0.7503045577151869,1.100237256701927,0,63.50939020002261,3.6344237802550197,0,62,68.1638550190255,17,64.52734689833596,3.6470588235294117,0.999985392027786,1.4607972213963145e-05,-11.133928528145516,1,64.44371213344857,1.0156882591545582,1,55,66.47858454473317,95,65.46161194285378,0.5789473684210527,2.390230414706096e-07,0.9999997609769585,15.246705642811948
13,1,67.44524141354486,1.081794571597129,1,66,69.53121849382296,59,68.44732693955302,1.11864406779661,0.06870594274124053,0.9312940572587595,2.6067393801119008,1,74.58359446842223,2.1633236622437835,1,42,77.7706415313296,39,75.60518296062946,1.0769230769230769,0.6577365040783619,0.3422634959216381,-0.6532235050699473,1,70.66437570890412,1.0990982339717448,1,55,72.78308594645932,95,71.68222060520202,0.5789473684210527,5.965557094866902e-06,0.9999940344429051,12.029502147257967,1,68.97975629521534,0.8990773749537766,0,32,70.88186062593013,16,69.98153999447823,2.0,0.951371005913977,0.048628994086022996,-2.973684169202196
14,1,72.03185612196103,2.3003248190507293,1,62,75.35192015348002,43,73.05037262104452,1.441860465116279,0.349619504636677,0.650380495363323,0.620712135585207,1,80.27089358028024,3.0998891456983984,1,6,84.39077201206237,8,81.28922835132107,0.75,0.5305694724346356,0.4694305275653644,-0.12243058940871486,0,75.28371843835339,0.8993144114501774,0,78,77.20301660522819,65,76.3018157784827,1.2,0.9446992459165566,0.055300754083443336,-2.838080073885519,1,73.3825409207493,0.7824577996507287,1,42,75.1681228610687,67,74.38449765648693,0.6268656716417911,4.5632787078031534e-05,0.999954367212922,9.994838451113887
15,1,77.8519715112634,0.8820549957454205,1,50,79.73785662138835,62,78.85393891390413,0.8064516129032258,0.0155530302523057,0.9844469697476943,4.147824540294913,1,86.89189556473866,1.4660966731607914,1,15,89.37754537677392,19,87.90965749835595,0.7894736842105263,0.3198851204922486,0.6801148795077514,0.7542997914772223,0,79.70359299890697,1.2664029244333506,0,50,81.9732761126943,7,80.70527516771108,7.142857142857143,0.9999670110540126,3.29889459873244e-05,-10.319305033203747,1,77.66931831464171,0.8318862258456647,1,52,79.52104646898806,68,78.6877443450503,0.7647058823529411,0.0004053547488711562,0.9995946452511288,7.810342514188567
16,1,82.23843696573749,0.7158584510907531,1,15,83.97436885070056,19,83.25671405810863,0.7894736842105263,0.3769810201217024,0.6230189798782976,0.5023821419416976,0,91.87861796701327,1.4661871418356895,1,37,94.36462965421379,52,92.89647352928296,0.7115384615384616,0.008199169924762661,0.9918008300752373,4.795489390534056,1,84.47329231025651,2.9143899311311543,0,58,88.41064594034106,58,85.4944648030214,1.0,0.24309894010211153,0.7569010598978885,1.1357640232413588,1,82.02180538047105,1.3154114005155861,0,97,84.34060837794095,61,83.02391144959256,1.5901639344262295,0.9959504166320651,0.00404958336793497,-5.505083470135555
17,1,86.47486188681796,0.733403891324997,1,87,88.22780311433598,89,87.49262184463441,0.9775280898876404,0.004547593695730434,0.9954524063042696,5.3885990785390065,1,96.86523054167628,1.9164359513670206,0,41,99.8018750376068,7,97.88344481959939,5.857142857142857,0.999966703108046,3.329689195399479e-05,-10.310013202602395,1,90.91129621025175,1.833412740379572,0,69,93.76339414110407,61,91.92881360091269,1.1311475409836065,0.7824310471187266,0.21756895288127345,-1.2798899748050139,1,86.84209775738418,0.8160506091080606,0,58,88.67739256750792,6,87.85999835655093,9.666666666666666,0.999996167288778,3.832711221994697e-06,-12.471934281629473
18,0,90.72754632495344,0.9153858795762062,1,87,92.66355951363221,85,91.74601818202063,1.0235294117647058,0.007983848452884912,0.9920161515471151,4.822318831476928,0,102.30237834528089,1.7166746468283236,1,54,105.03868040209636,80,103.3201742535457,0.675,0.00016744128435919325,0.9998325587156408,8.694710353987988,0,96.26454218756407,1.148734857328236,0,95,98.41696019703522,16,97.2663088995032,5.9375,0.9999999993050912,6.949088293480317e-10,-21.087240459068,0,91.17829686170444,0.9823984615504742,0,43,93.17975898133591,7,92.19606788130477,6.142857142857143,0.9997834644903989,0.00021653550960104952,-8.437539448381164
19,0,95.16367131564766,0.7989235385321081,1,68,96.98250749800354,63,96.18200055602938,1.0793650793650793,0.045936389020278856,0.9540636109797211,3.03347275531317,1,107.53866499476135,2.1164382426068187,1,28,110.67530427593738,82,108.55700806248933,0.34146341463414637,5.856730556086376e-08,0.9999999414326944,16.65308916307706,0,100.91771436808631,1.399874607566744,0,43,103.3376485821791,7,101.93547393055633,6.142857142857143,0.9997428011653737,0.00025719883462621936,-8.265403864697413,1,95.68098999094218,0.6981956781819463,0,72,97.3825721303001,51,96.68316124519333,1.411764705882353,0.910258589992928,0.089741410007072,-2.3167964114108495
20,1,106.50571455433965,1.866039626300335,1,19,109.3913361588493,37,107.52335954969749,0.5135135135135135,0.058881090038430006,0.94111890996157,2.7715495099994296,1,120.20097098033875,1.0153536424040794,1,42,122.23291638633236,67,121.21589835267514,0.6268656716417911,0.0003211143152281881,0.9996788856847718,8.043392210141057,0,112.86122739082202,1.8825539574027061,1,12,115.76187829300761,23,113.87762359855697,0.5217391304347826,0.005705492922638444,0.9942945070773616,5.160604066112612,0,106.88970890361816,1.2825731574557722,1,6,109.1909008808434,26,107.90701691200957,0.23076923076923078,0.0014648069439834321,0.9985351930560166,6.524565943225116
21,1,111.89160242956132,0.8321710643358529,1,56,113.72727096732706,46,112.89344617817551,1.2173913043478262,0.1878466960828572,0.8121533039171428,1.464062936464184,0,124.73395737120882,1.048142503015697,1,45,126.80288441805169,60,125.75299614109099,0.75,0.006544012783540554,0.9934559872164594,5.022639207498663,1,118.2625178960152,1.1654403982684016,1,87,120.4320404571481,89,119.26455601491034,0.9775280898876404,0.2657234347549332,0.7342765652450668,1.016429700600716,0,111.692067890428,1.566153324674815,1,45,114.27753218170255,42,112.71013362566009,1.0714285714285714,0.15814941702428098,0.841850582975719,1.672062280072448
22,1,116.22782444767654,0.7156079830601811,1,24,117.96320048207417,69,117.2459233677946,0.34782608695652173,0.0009549231554398796,0.9990450768445601,6.952924306844023,1,129.30359434196725,1.1325883278623223,1,43,131.45573422824964,93,130.3215348427184,0.46236559139784944,1.3250817043619634e-07,0.9999998674918296,15.836621397243675,1,122.93239640723914,1.899600435514003,1,15,125.85224331310019,56,123.95081967208534,0.26785714285714285,1.8297754028617774e-06,0.9999981702245971,13.211315499542518,0,116.77851627813652,1.1658247918821871,1,15,118.96384443156421,42,117.79669658094645,0.35714285714285715,0.00010784246506079231,0.9998921575349392,9.134731204279639
23,0,120.46364848129451,1.34910455532372,1,96,122.81641762005165,89,121.46547089656815,1.0786516853932584,0.0084874908018292,0.9915125091981708,4.760638155165394,0,133.956501041539,3.917723849415779,1,71,138.89397516520694,69,134.97449210984632,1.0289855072463767,0.3820660678194677,0.6179339321805323,0.48078799982709297,1,128.35238197958097,1.5662481393665075,0,53,130.922796824947,40,129.35430395044386,1.325,0.9062423582008067,0.09375764179919337,-2.2685935997499036,1,121.46475702198222,1.1156884171068668,0,94,123.60013645421714,46,122.48308428702876,2.0434782608695654,0.9999090147483423,9.098525165770654e-05,-9.304722144886602
24,0,125.31751707429066,0.732222659047693,1,55,127.06922452710569,60,126.33520829165354,0.9166666666666666,0.02886551760989975,0.9711344823901003,3.5158172371118535,1,141.3949075085111,1.266384751535952,1,58,143.680784559343,58,142.41276899678633,1.0,0.32456822684163666,0.6754317731583633,0.7328563840603906,0,133.4229418123141,1.7333387061953545,1,7,136.17547533707693,54,134.44070058502257,0.12962962962962962,3.006372544245295e-07,0.9999996993627456,15.017361133121362,0,126.10124855022877,1.1993156759999692,1,59,128.30373103311285,65,127.10312350885943,0.9076923076923077,0.005709647477661672,0.9942903525223383,5.159871985105852
25,0,129.57000082172453,1.9829333741217852,0,12,132.55670347064734,3,130.57178965676576,4.0,0.8254069267141508,0.17459307328584922,-1.5534185385153998,0,146.18112905230373,1.699750242754817,0,6,148.90123835764825,26,147.19948989758268,0.23076923076923078,0.0042008824327434136,0.9957991175672566,5.46825094179818,1,138.67603316297755,1.8826432414352894,0,62,141.56240577809513,43,139.67802189895883,1.441860465116279,0.9836560531756183,0.016343946824381676,-4.097418692508748,1,130.80474396934733,0.8655639733187854,1,6,132.68994009308517,8,131.82303330861032,0.75,0.25550212663623906,0.7444978733637609,1.069479262618981
26,1,135.05709655582905,0.8822414642199874,1,74,136.9591499241069,60,136.07523221662268,1.2333333333333334,0.10064105463396056,0.8993589453660394,2.190121954434195,0,151.4018250228837,2.4001803849823773,0,60,154.82169326208532,40,152.4196446351707,1.5,0.9956021175325896,0.00439788246741037,-5.422224529706117,1,144.0629158015363,1.432144358754158,1,53,146.49817323870957,55,145.06461377255619,0.9636363636363636,0.1429585806664886,0.8570414193335114,1.7909313054251566,1,135.19111302867532,1.216537956148386,0,54,137.42674861801788,31,136.20918587455526,1.7419354838709677,0.9801675196442304,0.019832480355769518,-3.900402479782282
27,1,139.45994834182784,2.0333767109550536,1,33,142.51331117842346,25,140.4782424219884,1.32,0.47604818003608906,0.5239518199639109,0.09588066578755436,0,157.32188802724704,2.800276226364076,1,56,161.14223610749468,59,158.34024373674765,0.9491525423728814,0.16688744012174694,0.8331125598782531,1.6078491850203926,0,148.99929126072675,1.3157851281575859,0,80,151.33582458645105,60,150.01782672293484,1.3333333333333333,0.991658071585516,0.008341928414484015,-4.778083947564729,1,139.92713064188138,0.7656124075874686,0,98,141.6958490172401,73,140.92897992162034,1.3424657534246576,0.892555536997395,0.10744446300260499,-2.1171146472050557
28,1,145.01377181895077,1.0991085055284202,1,69,147.13269183365628,61,146.0318845664151,1.1311475409836065,0.06413030662510233,0.9358696933748977,2.6805591958517296,0,163.64293141430244,1.3992421152070165,0,95,166.04594557033852,16,164.64475461980328,5.9375,0.9999999998686894,1.31310579054441e-10,-22.75345576610861,1,153.8364495728165,1.0326134539209306,1,54,155.8886272269301,78,154.8542217775248,0.6923076923076923,0.00044272376877751984,0.9995572762312225,7.7221217073830095,1,144.19619390554726,0.8148168339394033,1,43,146.01537695154548,93,145.19942155200988,0.46236559139784944,2.2145035583065464e-08,0.9999999778549644,17.625652470605853
29,0,149.6333235357888,1.232492485549301,1,45,151.86950905015692,42,150.63518822286278,1.0714285714285714,0.15905309003410728,0.8409469099658927,1.6652904846365428,1,168.54643939621747,2.599991861730814,0,98,172.16704948060215,73,169.56490651285276,1.3424657534246576,0.9972577485787848,0.0027422514212151845,-5.896229991126205,1,158.39281882205978,0.9830862623639405,0,82,160.39182287361473,40,159.40734481206164,2.05,0.9999791390921354,2.0860907864627768e-05,-10.777612726419001,0,148.51669724471867,1.0497405240312219,1,56,150.58573648845777,59,149.53457967145368,0.9491525423728814,0.016499685286263444,0.9835003147137366,4.087776650657853
30,0,154.37030154187232,1.5655267583206296,1,38,156.95565482089296,43,155.3883558199741,0.8837209302325582,0.09151507364387457,0.9084849263561254,2.2952745979148843,1,174.66892878478393,3.1332318815402687,0,69,178.82086402969435,61,175.68559758504853,1.1311475409836065,0.8083865002206938,0.19161349977930617,-1.4395599648163504,1,162.89573239535093,0.9992114584892988,0,45,164.91136258048937,40,163.91040455782786,1.125,0.4803296519532474,0.5196703480467526,0.0787220214001932,0,153.0862978696823,1.466349511872977,0,40,155.5718591879122,15,154.10410365462303,2.6666666666666665,0.9948663402319513,0.005133659768048663,-5.266789586802193
31,0,159.45648760907352,1.132708031218499,1,37,161.59221706539392,52,160.4584443452768,0.7115384615384616,0.0256012711031961,0.9743987288968039,3.6391785897349562,0,181.32155657140538,3.6174148325808346,1,45,185.95931229414418,42,182.3399186017923,1.0714285714285714,0.6383113289599562,0.3616886710400438,-0.5680423237082249,1,167.41423072200269,0.749046718236059,1,10,169.18152569327503,44,168.43028204189613,0.22727272727272727,1.0856151339888598e-05,0.9999891438486601,11.430767838650903,1,158.07259163074195,1.7341094696894288,1,12,160.82562727760524,9,159.09084541443735,1.3333333333333333,0.5299625947851501,0.47003740521484993,-0.11999415107764591
32,0,164.0934271365404,0.8320150156505406,1,58,165.9454022035934,58,165.1114292666316,1.0,0.04638177500992113,0.9536182249900789,3.023356805789606,0,188.46011703275144,1.1330047217197716,0,51,190.61234264727682,7,189.4775265720673,7.285714285714286,0.9999980192046385,1.980795361483534e-06,-13.13201011540048,1,171.68130445899442,1.0323080718517303,0,66,173.7167504983954,59,172.683236701414,1.11864406779661,0.7192847700109674,0.28071522998903264,-0.9409166042304018,1,163.3262392268516,1.0830002967268229,0,33,165.42856510775164,25,164.34433380141854,1.32,0.6212592328594109,0.37874076714058913,-0.49489645970604734
33,1,168.44583400478587,0.9822412272915244,1,43,170.44776506209746,93,169.46403050469235,0.46236559139784944,0.00012035908927909844,0.9998796409107209,9.024910506538966,0,193.11296210251749,3.4342468716204166,1,15,197.56721682846546,42,194.1309918873012,0.35714285714285715,0.0003713669685652121,0.9996286330314348,7.897948414685822,0,176.21802654489875,0.9155399529263377,1,24,178.15308131603524,90,177.23620368679985,0.26666666666666666,2.588531167191377e-09,0.9999999974114688,19.77217523643258,1,167.92922051344067,0.898414857685566,0,82,169.83115417836234,40,168.93123176833615,2.05,0.9997078692189137,0.00029213078108626683,-8.13801680207248
34,0,172.94871044252068,0.949442490004003,1,14,174.91834962554276,57,173.96709538670257,0.24561403508771928,0.0025943593913050345,0.997405640608695,5.951817924961852,0,200.06751628452912,1.0657961899414659,1,58,202.15313306916505,58,201.08543229149655,1.0,0.32456822684163666,0.6754317731583633,0.7328563840603906,0,180.65406185714528,0.915146472863853,1,45,182.5894081830047,92,181.67278181249276,0.4891304347826087,7.14457440320615e-07,0.9999992855425597,14.151741692574333,1,172.33264671778306,1.0819383733905852,1,87,174.41762824496254,89,173.33445293596014,0.9775280898876404,0.004201249367818627,0.9957987506321814,5.468163229987423
35,1,177.41853767447174,2.6835732934996486,0,97,181.1056704656221,61,178.42042329953983,1.5901639344262295,0.32587471257084155,0.6741252874291584,0.7269029898004395,0,204.65371222840622,3.901057024486363,1,28,209.5583022814244,41,205.65545879211277,0.6829268292682927,0.01947877254852204,0.980521227451478,3.9187590096481375,1,185.09030418097973,0.915473978035152,1,28,187.00892126280814,82,186.09211750980467,0.34146341463414637,7.295394222062157e-08,0.9999999270460578,16.433437450447844,0,176.91854123026133,1.1326625989750028,1,87,179.07068348675966,85,177.9367594588548,1.0235294117647058,0.013981752899975164,0.9860182471000248,4.255921745408254
36,1,183.60948635777459,0.8489038641564548,1,17,185.47488875081763,82,184.62486844463274,0.2073170731707317,9.309945151103616e-05,0.999906900548489,9.281749161309033,1,212.05847334302962,1.8664165143854916,1,40,214.9284177501686,93,213.06025467207655,0.43010752688172044,5.6828917682771873e-08,0.9999999431710823,16.683220469811708,0,189.5112596275285,1.0157972956076264,1,60,191.54543041065335,61,190.5283076860942,0.9836065573770492,0.20410379811166535,0.7958962018883347,1.3608400989888445,1,181.57218945864588,0.5484873913228512,1,40,183.14020865550265,93,182.59029944054782,0.43010752688172044,1.049969766686587e-08,0.9999999895003023,18.371919363329603
37,0,187.9755583787337,1.1647427207790315,1,54,190.14479768136516,80,188.97836765600368,0.675,0.0016308985827536704,0.9983691014172463,6.416991908352652,0,217.42867967532948,1.2493129894137383,1,24,219.681511471048,90,218.43051512772217,0.26666666666666666,1.5787455787119598e-09,0.9999999984212544,20.266635241188176,1,194.04651564266533,0.7492169891484082,1,52,195.81481209304184,68,195.06435026740655,0.7647058823529411,0.003674705997480987,0.996325294002519,5.602600675887302,1,185.6414918131195,1.3161742631345987,0,41,187.97664637630805,7,186.65913522802293,5.857142857142857,0.9996439303925865,0.00035606960741350836,-7.94002818676736
38,0,192.64624597411603,1.949582341592759,1,22,195.61534471437335,31,193.66391032747924,0.7096774193548387,0.1527997522209209,0.8472002477790791,1.712808831615104,0,222.18221151875332,4.699009503703564,0,68,227.90364269772545,63,223.2034322093241,1.0793650793650793,0.6309218134711526,0.3690781865288474,-0.5361734367357797,0,198.3157566837035,1.0150664332322776,1,58,200.33437155326828,58,199.31804961664602,1.0,0.24309894010211153,0.7569010598978885,1.1357640232413588,0,190.47764113964513,0.898772387765348,0,62,192.3961353576742,17,191.4960525529459,3.6470588235294117,0.9999602671579224,3.9732842077617825e-05,-10.133292722264462
39,0,198.11572594800964,1.4831996448338032,1,24,200.6188812982291,90,199.13379207765684,0.26666666666666666,4.88896668935368e-05,0.9999511103331065,9.925895603921342,1,230.40762095991522,1.2327789049595594,0,53,232.65709671424702,40,231.42234882619232,1.325,0.9691363647374246,0.03086363526257541,-3.446826690747459,1,202.83559308107942,1.2655946295708418,1,6,205.1043659746647,8,203.83740166947246,0.75,0.05408653241668959,0.9459134675833104,2.861565876800117,1,194.89746355172247,0.8984492286108434,1,50,196.81572231370956,62,195.9159784708172,0.8064516129032258,0.0015170164767890348,0.998482983523211,6.489491548933575
40,1,210.1418769969605,1.6989743430167437,0,41,212.86024605948478,7,211.15924307936803,5.857142857142857,0.9530492738128971,0.04695072618710296,-3.0105679334350164,0,242.18012322764844,1.9826007327064872,1,12,245.1818251493387,23,243.1974146431312,0.5217391304347826,0.05503011185410989,0.9449698881458901,2.8432725389181805,0,214.61106502078474,1.0654647340998054,1,60,216.69541721558198,70,215.628652731888,0.8571428571428571,0.021955123150843914,0.9780448768491561,3.7965550420938765,1,206.3234244189225,0.8986700670793653,1,4,208.24026293680072,22,207.3403187985532,0.18181818181818182,0.002988961853726879,0.9970110381462731,5.80983572025972
41,0,215.3606332191266,1.1488474495708942,0,40,217.51344352355227,15,216.3625551899895,2.6666666666666665,0.8591483021197336,0.1408516978802664,-1.8082340033804591,1,247.68374870019034,1.2331273485906422,0,82,249.93548657279462,40,248.7005774998106,2.05,0.9999911103833203,8.88961667964631e-06,-11.630617737861904,0,219.19698363170028,1.8325641499832273,0,40,222.0488626989536,15,220.21510190982372,2.6666666666666665,0.9946221837360997,0.005377816263900276,-5.220080557339427,1,210.74178984668106,1.1154257017187774,0,46,212.87652928056195,36,211.7598733594641,1.2777777777777777,0.5974991319750462,0.4025008680249537,-0.39505557760315296
42,0,220.01406653458253,0.8822232917882502,1,35,221.9163004453294,62,221.03214570134878,0.5645161290322581,0.00551679530335647,0.9944832046966435,5.194426079250954,0,252.4354719556868,2.0165716148912907,0,62,255.4720751279965,17,253.45360406069085,3.6470588235294117,0.9999980157598631,1.984240136831244e-06,-13.130272535474543,0,224.54982506716624,0.8655145899392664,1,56,226.41845313133672,59,225.5517312353477,0.9491525423728814,0.1199157823410727,0.8800842176589273,1.993227922207219,0,215.37734903162345,1.1324761305004358,0,41,217.51297498168424,22,216.37910744734108,1.8636363636363635,0.9675203468793518,0.03247965312064811,-3.3941226195956107
43,1,224.41707160370424,1.8327336311340332,0,4,227.25335959671065,22,225.41871624207124,0.18181818181818182,0.15517183675802715,0.8448281632419729,1.6946001224726905,1,257.97241764562204,1.3161481888964772,1,43,260.3092073658481,97,258.99094481160864,0.44329896907216493,3.825486449837712e-08,0.9999999617451355,17.078995070077077,1,228.92008828837425,1.0819573365151882,1,25,231.02139175171033,37,229.938127159141,0.6756756756756757,0.005851979710820743,0.9941480202891793,5.135106093240416,0,220.0149573967792,0.7988058100454509,0,62,221.8324100766331,16,221.03231083694845,3.875,0.9999706548255453,2.9345174454774006e-05,-10.436353093409245
44,1,229.75348522607237,0.9658560808748007,0,3,231.723066335544,18,230.7554131229408,0.16666666666666666,0.23181457946216266,0.7681854205378373,1.198093311341017,1,262.81086385576054,1.3161955960094929,1,24,265.14549970440567,69,263.82734026107937,0.34782608695652173,1.0739420033267777e-06,0.9999989260579967,13.744173490019945,1,233.5229526371695,1.1989897503517568,0,46,235.74168910598382,40,234.54145530890673,1.15,0.5534678914949296,0.44653210850507047,-0.21469243124356988,1,224.33403377607465,1.1993935024365783,1,42,226.55269952956587,39,225.35191067215055,1.0769230769230769,0.18106508507506203,0.818934914924938,1.5091480590588022
45,0,234.22355107497424,1.883080968633294,0,51,237.12650399655104,7,235.2416993775405,7.285714285714286,0.9760676849317806,0.023932315068219395,-3.708302292739048,0,267.645511161536,1.6496557439677417,0,53,270.31531421560794,15,268.6639763028361,3.533333333333333,0.9999864845308603,1.3515469139718911e-05,-11.211662150757032,0,238.24266332620755,2.7167263999581337,1,71,241.97886108700186,69,239.2607946409844,1.0289855072463767,0.42595818220993054,0.5740418177900695,0.2983610693341655,0,229.05337271327153,1.432672554627061,1,86,231.50607050443068,59,230.07208674307913,1.4576271186440677,0.9669105751291246,0.0330894248708754,-3.374892273549203
46,0,239.6269421186298,1.6331271906383336,1,45,242.28026600228623,60,240.64511610055342,0.75,0.014578069478008104,0.9854219305219919,4.213551596415889,0,272.8160585099831,3.6171295987442136,0,43,277.4534092955291,7,273.8342775288038,6.142857142857143,0.9999810637317859,1.8936268214112703e-05,-10.874412585162013,0,244.48029871331528,1.6488569313660264,0,51,247.14904695516452,7,245.49880375573412,7.285714285714286,0.9999753995072969,2.4600492703159418e-05,-10.61271948584751,1,234.00702260062099,0.6150721223093569,1,28,235.64164707204327,82,235.02535974234343,0.34146341463414637,1.4878883236590923e-08,0.9999999851211168,18.023322846783447
47,1,244.7806385443546,1.5324475280940533,1,53,247.33331239502877,40,245.79898832831532,1.325,0.30492309991396704,0.695076900086033,0.8239628736622773,0,279.9540394176729,3.351547611411661,0,77,284.3241485650651,72,280.9718748321757,1.0694444444444444,0.5697006437446974,0.43029935625530263,-0.28062989265060534,1,249.6505722850561,1.1821447531692684,0,14,251.85229941178113,8,250.66886755032465,1.75,0.3741976961357295,0.6258023038642705,0.514250255650022,0,238.14308509323746,0.915629236958921,1,37,240.06167689105496,52,239.14478780515492,0.7115384615384616,0.0012383812612479783,0.998761618738752,6.692711037975532
48,1,249.8339239489287,1.09915630845353,1,15,251.95302490144968,42,250.8517407956533,0.35714285714285715,0.02278746500323081,0.9772125349967692,3.758493562548642,0,286.8256829814054,4.31809741910547,1,87,292.16324465023354,85,287.84333943296224,1.0235294117647058,0.2818936848082657,0.7181063151917343,0.935087633756286,0,254.35308716306463,0.8483274704776704,1,7,256.20501640299335,54,255.35531254066154,0.12962962962962962,3.006372544245295e-07,0.9999996993627456,15.017361133121362,0,242.56286009820178,1.4827267569489777,1,7,245.06484843883663,54,243.58089580852538,0.12962962962962962,3.8829476078916514e-07,0.9999996117052392,14.761500704693198
49,1,254.45329393772408,0.7814002218656242,1,52,256.25598635617644,68,255.47289013816044,0.7647058823529411,0.007708463741768368,0.9922915362582316,4.857698039027225,1,294.66403042618185,3.9488289607688785,1,15,299.61877779243514,42,295.6677692811936,0.35714285714285715,0.0003713669685652121,0.9996286330314348,7.897948414685822,0,258.70623279502615,1.0320817017927766,1,15,260.74119448987767,42,259.7079465687275,0.35714285714285715,8.088303377495887e-05,0.999919116966225,9.422425588068952,0,247.56598107842728,1.3498595166020095,0,62,249.93522701784968,17,248.58407209720463,3.6470588235294117,0.9999602671579224,3.9732842077617825e-05,-10.133292722264462
50,1,258.7565354905091,1.3826033398509026,0,94,261.15878085792065,46,259.7743788063526,2.0434782608695654,0.7662627721243349,0.23373722787566506,-1.1873276288911383,0,302.1188694466837,1.4662539074197412,1,7,304.6042980244383,54,303.13691463833675,0.12962962962962962,9.35048066641464e-07,0.9999990649519334,13.882666965757887,0,263.2426155237481,2.166076445952058,0,62,266.41170351812616,16,264.244484951254,3.875,0.9999888556137956,1.1144386204403588e-05,-11.404563521823855,1,252.4359898804687,0.8655232819728553,1,10,254.3208245234564,44,253.45391852920875,0.22727272727272727,1.6960099500362702e-05,0.9999830399004996,10.984630100607733
51,1,263.66102440841496,0.8140053795650601,1,55,265.4949088515714,95,264.6794046116993,0.5789473684210527,0.0002094597668726994,0.9997905402331273,8.470769398905242,1,307.105408935342,4.785036756657064,0,53,312.91063408832997,55,308.12373303994536,0.9636363636363636,0.2293341828508988,0.7706658171491012,1.212074585258288,0,268.91315734153613,1.299279488157481,1,45,271.21541321789846,42,269.9148541279137,1.0714285714285714,0.3497832689118432,0.6502167310881568,0.6199920087568677,0,256.8223743471317,1.2662567519582808,1,7,259.10722898039967,54,257.8400936136022,0.12962962962962962,3.8829476078916514e-07,0.9999996117052392,14.761500704693198
52,1,267.99567250395194,1.5154911237768829,0,98,270.5151663837023,73,268.9979322515428,1.3424657534246576,0.08659239005933062,0.9134076099406694,2.3559702950562675,0,315.4111772971228,1.1329972157254815,0,62,317.56345980009064,17,316.4293275750242,3.6470588235294117,0.9999980157598631,1.984240136831244e-06,-13.130272535474543,0,273.7166383014992,1.8323986195027828,1,77,276.56850907206535,72,274.73479411005974,1.0694444444444444,0.657060187415125,0.34293981258487505,-0.6502206654933975,1,261.60894156899303,0.7497534821741283,1,19,263.37738379696384,37,262.6268362426199,0.5135135135135135,0.001325807577751914,0.9986741924222481,6.6244068253279895
53,1,273.01602761633694,0.7823704909533262,1,10,274.8187220096588,44,274.0341632771306,0.22727272727272727,0.012242776343067918,0.9877572236569321,4.390500865731701,1,320.0638493304141,2.249945086427033,0,32,323.31744556874037,16,321.0658345106058,2.0,0.993138030890009,0.006861969109990999,-4.9748752154806715,0,279.06972269900143,0.9657146488316357,1,9,281.03869976010174,7,280.07170195365325,1.2857142857142858,0.15307456185384194,0.8469254381461581,1.7106875251904947,0,265.8778973761946,1.0489105014130473,1,38,267.9297589813359,43,266.8796723843552,0.8837209302325582,0.023743603928584878,0.9762563960714151,3.7164120668655425
54,0,277.318878849037,1.2159181055612862,1,45,279.53766272543,92,278.32065069675446,0.4891304347826087,0.0001594224424767976,0.9998405775575232,8.7437935729116,1,325.8185394918546,1.883595337625593,0,45,328.72121310513467,40,326.8359170309268,1.125,0.7666031718528096,0.23339682814719043,-1.189229160508992,1,283.5397403500974,1.2824194789864123,0,58,285.841683733277,6,284.5579147269018,9.666666666666666,0.999997593309654,2.406690345981851e-06,-12.93725564803218,0,270.43156480416656,1.3152114995755255,0,9,272.7659130487591,7,271.4496143418364,1.2857142857142858,0.494962170725299,0.505037829274701,0.02015199905349281
55,0,282.03961314074695,0.9303531525656581,0,62,283.97401053085923,17,283.04196849279106,3.6470588235294117,0.9552169800502386,0.04478301994976139,-3.0601094703182916,0,331.22254327498376,1.6491954983212054,0,78,333.8918129974045,65,332.2401108383201,1.2,0.9391740043598585,0.0608259956401415,-2.7369835127330973,0,288.34248768212274,3.5011954540386796,1,14,292.8465682649985,7,289.3441540482454,2.0,0.43939561951312534,0.5606043804868747,0.2436152619716846,1,275.26732302084565,1.5832483950071037,1,14,277.853582569398,8,276.2690012389794,1.75,0.7151573740299764,0.2848426259700236,-0.9205657838362323
56,0,286.47477102279663,0.9985935837030411,1,77,288.477380794473,72,287.47679610410705,1.0694444444444444,0.0246110115343664,0.9753889884656336,3.679642387829214,1,336.3916581333615,1.532553009223193,0,12,338.928227330558,9,337.3935947213322,1.3333333333333333,0.8183242755310093,0.18167572446899072,-1.5050353186871823,0,295.34788421262056,0.9825924360193312,1,37,297.34953398630023,52,296.3656572070904,0.7115384615384616,0.0034235167830197755,0.9965764832169802,5.673657566690311,0,280.354744838085,1.2151825022883713,1,55,282.5897471453063,60,281.37330518942326,0.9166666666666666,0.009569178580380089,0.9904308214196199,4.639592652609523
57,1,290.97805990371853,0.882646401412785,1,43,292.8798189512454,97,291.9960130462423,0.44329896907216493,6.832334292528053e-05,0.9999316766570747,9.591190753598783,1,341.42860500887036,1.8662312305532396,1,88,344.3147267601453,96,342.44668259564787,0.9166666666666666,0.016800299419429177,0.9831997005805708,4.069415544880688,0,299.8503221324645,0.9651497122831643,1,22,301.8354828590527,31,300.8690357673913,0.7096774193548387,0.012230222744834873,0.9877697772551651,4.391539489101682,1,285.09092087112367,0.8989327824674547,1,24,286.9929236713797,69,286.09265992883593,0.34782608695652173,2.827901226520879e-07,0.9999997172098773,15.078560547716608
58,0,295.3806869001128,0.8488248521462083,0,28,297.2495662230067,18,296.3989884862676,1.5555555555555556,0.6332634038986441,0.3667365961013559,-0.5462425869190636,0,346.81579816527665,1.199054145719856,0,62,349.0346867325716,16,347.833852048032,3.875,0.999998545527707,1.4544722930030567e-06,-13.440865953874926,1,304.3365633501671,2.316990458406508,1,88,307.6733119841665,96,305.3547732825391,0.9166666666666666,0.06802312991617232,0.9319768700838277,2.6174602037053156,1,289.493726039771,0.7983779590576887,1,75,291.3123267660849,70,290.51262890873477,1.0714285714285714,0.063264076884056,0.936735923115944,2.6950837479193313
59,1,299.7507130848244,1.132411735597998,1,37,301.9030789458193,54,300.76889970805496,0.6851851851851852,0.019410900690715605,0.9805890993092844,3.9223187132659922,0,351.5357996188104,1.4496656996197999,1,7,354.00483791437,54,352.55335730547085,0.12962962962962962,9.35048066641464e-07,0.9999990649519334,13.882666965757887,1,310.17385677294806,1.7495903219096363,0,54,312.9265514826402,31,311.17565271956846,1.7419354838709677,0.9932919944046233,0.006708005595376616,-4.9977229954987,0,293.81340370187536,0.6820985311642289,1,28,295.4987259292975,41,294.8152533764951,0.6829268292682927,0.0036921489675381114,0.9963078510324619,5.597847632645006
60,0,311.424794647377,1.1326839323155582,1,28,313.5765766086988,41,312.4421228035353,0.6829268292682927,0.062393524243902654,0.9376064757560973,2.7098688336878767,1,363.52744921902195,1.4326587277464569,1,50,365.9793173824437,62,364.5449717454612,0.8064516129032258,0.014303734712452054,0.985696265287548,4.232827587900391,0,322.4331825780682,1.3488825308158994,1,38,324.8009944469668,43,323.45092436345294,0.8837209302325582,0.04999576356072055,0.9500042364392794,2.9445281709415405,0,305.00506546953693,1.5984163591638207,0,78,307.62337551033124,34,306.0237075984478,2.2941176470588234,0.9998717443178486,0.00012825568215134634,-8.961356505713574
61,0,316.07813630858436,1.1161202187649906,0,14,318.2131230500527,7,317.09593774797395,2.0,0.7552266390513613,0.24477336094863866,-1.1266851633141297,0,368.4799518501386,1.3336928384378552,1,60,370.83323140768334,70,369.497853634879,0.8571428571428571,0.019926481298534582,0.9800735187014654,3.8955780223053704,1,327.3025750853121,0.9656024519354105,1,43,329.2874588742852,93,328.3205531165004,0.46236559139784944,3.030991387875659e-07,0.9999996969008612,15.009205591135029,0,310.1245832112618,0.9657569206319749,1,14,312.10965070314705,57,311.14263590890914,0.24561403508771928,8.923625910428612e-07,0.999999107637409,13.929392402398468
62,0,320.71488660154864,1.0990283084101975,1,15,322.8334194566123,42,321.7326272013597,0.35714285714285715,0.02278746500323081,0.9772125349967692,3.758493562548642,1,373.33344474062324,1.4826615718193352,1,4,375.81992497015744,22,374.3351644403301,0.18181818181818182,0.008241668484649689,0.9917583315153503,4.790276650756253,0,331.7889691917226,1.7326362878084183,1,12,334.54088879190385,3,332.8070076671429,4.0,0.5626922831307527,0.4373077168692473,-0.2520958074541401,0,314.6106020095758,1.2328148554079235,1,87,316.86296131275594,76,315.62895100330934,1.144736842105263,0.1782310683714029,0.8217689316285971,1.528378405105213
63,1,325.33401639340445,0.8158222637139261,1,40,327.15380901796743,93,326.3358052284457,0.43010752688172044,9.762973502225325e-05,0.9999023702649777,9.234230814330939,1,378.31995855038986,2.1328526232391596,0,62,381.4732156684622,43,379.3384031485766,1.441860465116279,0.9936620617798047,0.006337938220195336,-5.054843657064586,0,337.0417397529818,1.6829708255827427,0,28,339.7443249518983,18,338.0600109193474,1.5555555555555556,0.7083124561574283,0.29168754384257173,-0.8872021445792738,1,319.36408447055146,1.2319457214325666,0,69,321.6158136515878,61,320.38261242676526,1.1311475409836065,0.1884559779331486,0.8115440220668514,1.460074192457691
64,1,329.65401484491304,0.7324644364416599,1,45,331.406131580472,40,330.67179613607004,1.125,0.2006638643684573,0.7993361356315427,1.3821503611055037,1,383.97360361833125,1.3156863627955317,1,55,386.3093357607722,95,384.99176416778937,0.5789473684210527,2.1045391556118176e-06,0.9999978954608444,13.071411938707334,1,342.24513917183504,4.133837114553899,1,12,347.3829849688336,9,343.2477418323979,1.3333333333333333,0.20234304013606874,0.7976569598639313,1.371714154615883,1,324.11689453804865,1.8829545490443707,1,45,327.0031482395716,40,325.11882124934345,1.125,0.2561756573279018,0.7438243426720982,1.0659415377828814
65,0,333.9100146330893,0.9493622928857803,1,53,335.87617293559015,57,334.9248171658255,0.9298245614035088,0.0380283178992048,0.9619716821007952,3.2306539236761065,0,388.81013457337394,1.7651000139303505,0,96,391.59615463623777,89,389.8292179852724,1.0786516853932584,0.5896057751638883,0.41039422483611165,-0.3623359141604575,1,349.8841424966231,0.9818528825417161,1,4,351.8690835693851,22,350.88600046793,0.18181818181818182,0.0007187451618838603,0.9992812548381161,7.237284693584368,0,329.50435475539416,1.0324929603375494,1,71,331.556245200336,64,330.52239046571776,1.109375,0.1333400510241084,0.8666599489758916,1.8717440442782391
66,1,338.37613105913624,2.5337172532454133,0,82,341.92970762308687,40,339.3943105712533,2.05,0.7684299109653017,0.2315700890346983,-1.1994667683194153,0,394.09716243622825,3.0996833192184567,0,12,398.2176113361493,3,395.116051082965,4.0,0.9667085301236104,0.033291469876389694,-3.36859582908948,0,354.3700617402792,1.6324591427110136,0,60,357.00577657902613,40,355.37187664955854,1.5,0.9869069572867897,0.013093042713210297,-4.322494768256238,1,334.0570380873978,0.9820030056871474,1,15,336.04205738194287,42,335.0587799102068,0.35714285714285715,0.00010784246506079231,0.9998921575349392,9.134731204279639
67,1,344.4305206583813,1.0854397974908352,1,88,346.5351323611103,96,345.4484769613482,0.9166666666666666,0.0018150671923174988,0.9981849328076825,6.309816074967243,1,400.7178693106398,1.2992273401468992,1,25,403.0375955654308,37,401.73642887175083,0.6756756756756757,0.028665282268375614,0.9713347177316244,3.5229844098860297,0,359.5071138595231,1.249245828948915,0,68,361.7758626546711,63,360.5252744089812,1.0793650793650793,0.6094987040749321,0.3905012959250679,-0.4452055348045768,1,338.54341086000204,0.8649322707206011,1,58,340.4116687527858,58,339.54540078155696,1.0,0.03601275027988515,0.9639872497201148,3.2872050178992573
68,1,349.0349972504191,2.9010708518326283,1,46,352.9544016881846,40,350.05149459373206,1.15,0.2120893703508604,0.7879106296491396,1.3123769251751007,0,405.53824820555747,0.999007211998105,0,86,407.55721309920773,59,406.556494878605,1.4576271186440677,0.9989502380624873,0.0010497619375126974,-6.858141553373862,0,364.2767985537648,3.050488374195993,1,45,368.33025106880814,60,365.278470845893,0.75,0.0041050580213369825,0.995894941978663,5.491421894966949,1,342.9130720086396,0.8155093756504357,1,37,344.7481925971806,54,343.9314403603785,0.6851851851851852,0.0006758713031022046,0.9993241286968978,7.298831780265136
69,1,355.45474223047495,0.7655811980366707,1,28,357.24043715838343,82,356.47272855835035,0.34146341463414637,0.00020055100847859997,0.9997994489915214,8.514241366074886,0,410.0577531470917,1.0312319258227944,0,9,412.09328926028684,7,411.060388202779,1.2857142857142858,0.7823856097503687,0.21761439024963125,-1.2796230816485228,0,370.8319063736126,1.199792514089495,1,6,373.0502221030183,26,371.8491349746473,0.23076923076923078,0.0004379377431242837,0.9995620622568757,7.7329957630103205,0,347.249109138269,1.1653495342470706,1,45,349.41789096035063,92,348.2510591582395,0.4891304347826087,4.9312862460126894e-08,0.9999999506871375,16.825080838785734
70,1,359.74076782446355,0.7984297126531601,1,58,361.5592176374048,58,360.7589208674617,1.0,0.04638177500992113,0.9536182249900789,3.023356805789606,0,414.59379691351205,3.0838761469349265,1,38,418.68096944782883,43,415.5954534034245,0.8837209302325582,0.15213554263469387,0.8478644573653061,1.7179489336508165,1,375.55096560763195,2.049624375998974,1,74,378.6202968014404,60,376.56945168739185,1.2333333333333334,0.9533628095094762,0.04663719049052385,-3.0175972317021595,0,351.9200665601529,0.6652728919871151,1,60,353.60413446929306,70,352.9375353581272,0.8571428571428571,0.001615622191284194,0.9983843778087158,6.426418210022883
71,0,364.0605027698912,1.664330672007054,1,41,366.7292984193191,22,365.0632567387074,1.8636363636363635,0.7082742041524175,0.29172579584758257,-0.8870170069522286,1,421.18176233489066,6.335646414197981,1,87,428.52120449300855,89,422.1837190706283,0.9775280898876404,0.1017928086490204,0.8982071913509796,2.1774613073578206,0,381.1214049467817,1.7830310328863561,0,71,383.9239219580777,64,382.13957221247256,1.109375,0.7416982279506228,0.25830177204937715,-1.0548138990575227,1,356.1052398495376,0.7155186990275979,1,15,357.84003198426217,56,357.1231854860671,0.26785714285714285,1.5495004801469037e-06,0.9999984504995199,13.377576400344822
72,1,369.2305365400389,1.3991670534014702,0,32,371.64973041042686,16,370.24867220036685,2.0,0.7518449663088229,0.24815503369117708,-1.1084764541717147,1,431.0216434057802,3.7851426326669753,0,14,435.8096763030626,8,432.02367520332336,1.75,0.9152916144918125,0.08470838550818745,-2.3800281196471826,1,386.4246532157995,1.7493607914075255,0,32,389.1772408639081,16,387.42673163022846,2.0,0.9309985333983547,0.06900146660164533,-2.6021299425109956,0,360.34152175858617,0.9484931589104235,1,22,362.3091872180812,31,361.359707986936,0.7096774193548387,0.016960241328687897,0.9830397586713121,4.059777706038567
73,1,374.15033840900287,0.8320612371899188,1,54,376.0025110063143,78,375.16859851405025,0.6923076923076923,0.002163522386489647,0.9978364776135104,6.1338517848216005,1,438.3120988160372,3.299996128771454,1,54,442.63021480245516,78,439.32850015955046,0.6923076923076923,0.00031158600704994655,0.99968841399295,8.073523517187638,1,391.6782699972391,2.116672513540834,1,14,394.8144221683033,57,392.69640486780554,0.24561403508771928,1.0409612563044846e-06,0.9999989590387437,13.775364945829308,0,364.81060469616205,1.8830311908386648,0,60,367.7133387536742,40,365.8290406027809,1.5,0.9349534104573622,0.06504658954263771,-2.665392924320643
74,0,378.503300732933,1.6832355163060129,1,78,381.20598825253546,65,379.5210610856302,1.2,0.06793326945934186,0.9320667305406581,2.6188785195401763,1,445.1308445292525,1.349435220938176,1,17,447.4844239382073,82,446.13283168524504,0.2073170731707317,2.6273614395222467e-09,0.9999999973726386,19.75728574666097,0,397.3155927332118,1.8331796545535326,0,41,400.16846458846703,22,398.33389115938917,1.8636363636363635,0.9738917818527917,0.026108218147208276,-3.61905005423483,1,370.2146649728529,1.0157269751653075,1,25,372.24999209912494,37,371.2329811761156,0.6756756756756757,0.005870818832990121,0.9941291811670099,5.131873040486575
75,0,383.70675427513197,1.0989824812859297,0,53,385.8253977471031,15,384.7245873194188,3.533333333333333,0.937922788319956,0.062077211680044014,-2.715288670475701,0,449.9844693704508,1.8997240895405412,0,14,452.90395479556173,7,451.0023596980609,2.0,0.9364709689188266,0.06352903108117341,-2.6906215380475658,0,402.66958616580814,1.9651283789426088,1,28,405.6381638208404,41,403.6718384074047,0.6829268292682927,0.004785333641190492,0.9952146663588095,5.3374027100224675,1,374.7506688381545,1.4665837828069925,1,66,377.23695746297017,59,375.7689874120988,1.11864406779661,0.167950821203257,0.832049178796743,1.6002203425888315
76,0,388.32661176892,1.566443299409002,0,62,390.9128594659269,16,389.34459651634097,3.875,0.9608974320707393,0.039102567929260736,-3.2016795320838103,0,455.40755024412647,1.5159525549970567,0,28,457.9403391042724,18,456.4226526278071,1.5555555555555556,0.9617602487067081,0.03823975129329195,-3.2248896135606717,1,408.1398214958608,1.1156741948798299,1,3,410.2744546579197,18,409.1574337007478,0.16666666666666666,0.0015809310180984193,0.9984190689819016,6.448159171514804,0,379.7375559802167,0.7978940098546445,1,58,381.538915858604,58,380.73987222183496,1.0,0.03601275027988515,0.9639872497201148,3.2872050178992573
77,0,393.41302144061774,0.982375152874738,0,62,395.4152657808736,17,394.4310097438283,3.6470588235294117,0.9552169800502386,0.04478301994976139,-3.0601094703182916,0,460.44107352243736,2.683813885319978,0,78,464.1450098291971,34,461.45926528191194,2.2941176470588234,0.9999957363448401,4.263655159923784e-06,-12.36537948314497,1,412.7753901621327,1.4661792404949665,0,94,415.24499418446794,46,413.7774891201407,2.0434782608695654,0.999996870944403,3.1290555970131117e-06,-12.67477619607412,0,384.04009353462607,0.8991354489699006,1,77,385.94214966800064,72,385.041708543431,1.0694444444444444,0.05712492676770886,0.9428750732322911,2.803693228595095
78,1,397.9156391136348,0.832399804610759,1,26,399.7515529836528,84,398.9173584179953,0.30952380952380953,0.00013142689440792665,0.9998685731055921,8.93692836146592,0,466.64548429707065,1.099453788716346,1,59,468.7646721629426,65,467.66342874849215,0.9076923076923077,0.06755861995242118,0.9324413800475788,2.624810621583265,1,417.74667951418087,0.9486100971698761,1,42,419.7146215159446,67,418.76465991605073,0.6268656716417911,0.00025701727460769597,0.9997429827253923,8.266110208646408,0,388.44318156689405,1.9658552911132574,0,14,391.41232731891796,7,389.4451833399944,2.0,0.7727010557209434,0.22729894427905661,-1.2236261549810155
79,0,402.25204483466223,1.6323335133492947,1,87,404.8881950303912,76,403.254075051751,1.144736842105263,0.02797179132629324,0.9720282086737068,3.548188275587259,0,471.2651181863621,1.031930393539369,0,71,473.3015862479806,64,472.26734672440216,1.109375,0.7450110979818823,0.2549889020181178,-1.072179092174821,1,422.2153330203146,1.8827992901206017,0,42,425.10149664850906,39,423.21737350942567,1.0769230769230769,0.3344045901343319,0.6655954098656681,0.6883303856531405,0,393.9134145262651,1.3819941561669111,0,12,396.29886862495914,3,394.9156272620894,4.0,0.8741714632582692,0.12582853674173078,-1.9383563779463449
80,1,414.4117252463475,0.732227795291692,1,25,416.16327941510826,37,415.4290818469599,0.6756756756756757,0.08683483558594896,0.913165164414051,2.3529088944170113,1,482.82299301214516,1.1830691955983639,1,3,485.02532300166786,18,483.8401809222996,0.16666666666666666,0.021246187637827152,0.9787538123621728,3.8301026684345407,0,434.60849949577823,1.698217011988163,1,35,437.3258903878741,62,435.62644118163735,0.5645161290322581,0.00012755486505577895,0.9998724451349442,8.966836408760539,0,405.8056759177707,1.5984815447591245,0,53,408.42392037808895,15,406.82415488595143,3.533333333333333,0.99979669761589,0.0002033023841100737,-8.500612787291915
81,1,418.66310795908794,0.9822258199565113,1,75,420.64898374537006,70,419.6648529423401,1.0714285714285714,0.028303744905370465,0.9716962550946295,3.5360491361589816,1,487.52585001289845,0.9488281705416739,1,10,489.47845259448513,44,488.52776210708544,0.22727272727272727,4.868291591519913e-05,0.9999513170840848,9.930133707883023,0,439.8274832731113,1.1992473304271698,1,53,442.0458353483118,57,440.84525666292757,0.9298245614035088,0.08849094540870228,0.9115090545912977,2.33220129278183,1,410.9253449672833,1.0653604376129806,0,16,413.01004639593884,10,411.9434818131849,1.6,0.6925262239005637,0.30747377609943627,-0.8119563031604692
82,0,423.1497343610972,1.4341978845186532,1,59,425.60286632413045,65,424.16762034315616,0.9076923076923077,0.018991794579615084,0.9810082054203849,3.944573802217841,1,491.9792924937792,1.76620302349329,0,16,494.7656329507008,10,492.99744119122624,1.6,0.9107836176096279,0.0892163823903721,-2.3232406654060336,1,444.54679969139397,1.4994326927699149,1,37,447.04961726488546,54,445.5488528222777,0.6851851851851852,0.0019953717220091427,0.9980046282779909,6.2149275540470414,1,415.5117178983055,0.6651089424267411,1,17,417.1963740531355,82,416.5298895095475,0.2073170731707317,9.642844300827846e-10,0.9999999990357156,20.759634811919888
83,1,428.1044916040264,0.9153416329063475,1,42,430.03839319292456,67,429.12133225565776,0.6268656716417911,0.004434648831093457,0.9955653511689065,5.413862336565736,0,497.2656451975927,3.150656037963927,0,87,501.4363936325535,76,498.28391201840714,1.144736842105263,0.8653264498970443,0.13467355010295565,-1.8602531318471591,0,449.5502568683587,1.1487261657603085,1,54,451.70215537259355,80,450.5522222961299,0.675,0.0002577167499109301,0.9997422832500891,8.26339169473951,1,419.69757898850366,1.5161129492335021,1,56,422.21672600507736,46,420.69939152756706,1.2173913043478262,0.4630694221336352,0.5369305778663648,0.14799182577566294
84,0,432.5395574369468,1.0484984531067312,0,43,434.60796497855335,7,433.5576859866269,6.142857142857143,0.9589132452096081,0.041086754790391915,-3.1501148052958223,0,503.93732716096565,1.9664731658995152,1,55,506.9233720335178,60,504.9550800076686,0.9166666666666666,0.09969282567022664,0.9003071743297734,2.2006422947005846,1,454.2033539870754,1.96653321525082,1,43,457.18943520542234,97,455.2216409561224,0.44329896907216493,1.0267002126251867e-07,0.9999998973299787,16.0917455658698,0,424.7840080182068,0.882502599619329,1,24,426.66954033914953,90,425.78573877969757,0.26666666666666666,4.869653569272714e-10,0.9999999995130346,21.44282813056221
85,0,437.1084469528869,1.0326343914493918,1,12,439.1615822343156,23,438.1270709084347,0.5217391304347826,0.21789380886664855,0.7821061911333514,1.2779826967949834,0,509.4244730682112,2.6834994168020785,1,45,513.1272830562666,92,510.44199914997444,0.4891304347826087,3.1786822907164947e-07,0.9999996821317709,14.961628596163104,0,459.69048290653154,1.5326786385849118,0,53,462.22625724133104,15,460.6922974209301,3.533333333333333,0.9998807856784283,0.00011921432157170676,-9.034468441708336,1,429.1707377685234,1.062348099425435,1,43,431.25579475192353,97,430.1921982606873,0.44329896907216493,6.588804168927709e-09,0.9999999934111958,18.837893959777038
86,1,441.66190183814615,1.6993615026585758,0,12,444.381514552515,9,442.68001577071846,1.3333333333333333,0.6690736206035348,0.33092637939646513,-0.7039981679222845,1,515.6281833997928,1.3322070147842169,1,52,517.9641565294005,68,516.6302669504657,0.7647058823529411,0.003942504835043992,0.996057495164956,5.531988715743082,0,464.7277517565526,1.2331340643577278,1,59,466.97972943075,65,465.7453548749909,0.9076923076923077,0.06083679260923025,0.9391632073907697,2.73679452634596,0,433.75688314437866,1.0158632709644735,1,53,435.7923615789041,57,434.7752123847604,0.9298245614035088,0.01437305297578717,0.9856269470242128,4.227922800788981
87,0,446.8821138595231,1.3157792021520436,1,60,449.21836116118357,40,447.90073149465024,1.5,0.4168911249404931,0.5831088750595069,0.33554882214945536,1,520.4648020588793,1.3831208697520196,0,94,522.8677332517691,46,521.4827800900675,2.0434782608695654,0.9999980612273923,1.9387726076316344e-06,-13.153453522817308,1,469.4802038986236,1.6992888115346432,1,26,472.182690332178,84,470.4821325857192,0.30952380952380953,2.3611395838507576e-08,0.9999999763886042,17.561536343336797,1,438.2961545572616,1.2329290281049907,1,26,440.54557421291247,84,439.3113936325535,0.30952380952380953,4.9347943509303605e-09,0.9999999950652056,19.126954831538455
88,1,451.7187502961606,1.0489413160830736,1,42,453.7871112204157,39,452.7371186478995,1.0769230769230769,0.19001686314564237,0.8099831368543576,1.4499006071311944,1,525.3682729047723,2.1664612349122763,0,58,528.5549723142758,6,526.3862623930909,9.666666666666666,0.9999997986057836,2.013942163801953e-07,-15.418001372759523,1,474.6837870213203,1.4498292547650635,0,75,477.15302166203037,70,475.701899768319,1.0714285714285714,0.6467221149730041,0.35327788502699586,-0.6046617475625502,1,443.04623159440234,0.9652243787422776,0,74,445.0147468294017,60,444.0482815648429,1.2333333333333334,0.5216774857876243,0.4783225142123757,-0.08676433272160256
89,0,456.28822094621137,1.2828433788381517,0,95,458.5746656996198,16,457.2898525474593,5.9375,0.9959468636508146,0.00405313634918532,-5.504202917787117,1,531.0550809558481,2.6165310819633305,1,37,534.6759016076103,54,532.0569970007055,0.6851851851851852,0.004422242859869918,0.9955777571401301,5.416676227334853,0,479.6537529192865,1.3497058381326497,0,96,482.0229510567151,89,480.6718897651881,1.0786516853932584,0.835387350269295,0.16461264973070494,-1.6243003731931416,0,447.51579769095406,1.0989575926214457,0,50,449.6179292020388,7,448.5176821309142,7.142857142857143,0.9999620357954973,3.796420450280094e-05,-10.178828864029477
90,1,461.07529542641714,0.7664878624491394,0,15,462.86055341688916,56,462.0929285697639,0.26785714285714285,0.0032029516000261493,0.9967970483999739,5.740474427265915,1,537.1775584928691,1.8301969459280372,0,72,540.0296204732731,51,538.1977295065299,1.411764705882353,0.9954681966390077,0.004531803360992395,-5.392093222659607,0,484.52422078186646,1.6157804667018354,1,55,487.1592869311571,60,485.54216404818,0.9166666666666666,0.07193910396175374,0.9280608960382463,2.5572773685293195,0,452.11902352049947,0.9656881801784039,1,45,454.10411906195804,60,453.1371832797304,0.75,0.000802361226840187,0.9991976387731598,7.127148960678484
91,0,465.3608038853854,1.3499570963904262,1,80,467.71386181376874,60,466.3626974117942,1.3333333333333333,0.14535820670481536,0.8546417932951846,1.7714813388517752,0,542.5297674355097,2.5499088196083903,0,50,546.0997963068075,7,543.5480168741196,7.142857142857143,0.9999973733808966,2.6266191034681843e-06,-12.849810424120673,0,489.66058510076255,2.050012720748782,0,86,492.7301541212946,59,490.67880135402083,1.4576271186440677,0.9988976473581751,0.0011023526418249088,-6.80920565710564,0,456.6055954042822,0.9825296215713024,1,71,458.6075130291283,69,457.62362558348104,1.0289855072463767,0.03270277435734492,0.9672972256426551,3.387045900002151
92,1,470.21474516997114,1.2658652462996542,1,72,472.5000612344593,51,471.23266986804083,1.411764705882353,0.258163019860711,0.741836980139289,1.0555382704053284,1,548.6002194168977,1.34908993775025,1,15,550.9694033316337,56,549.618384311907,0.26785714285714285,4.803042074064123e-06,0.9999951969579259,12.246256272311292,1,495.23073011962697,1.0157739869318902,1,15,497.2661153199151,42,496.2489704717882,0.35714285714285715,8.088303377495887e-05,0.999919116966225,9.422425588068952,0,461.10839994065464,1.299022303428501,1,78,463.42743720905855,65,462.12715031625703,1.2,0.3932872951862173,0.6067127048137827,0.4335149997747087
93,1,475.0010785157792,1.4828670034185052,0,14,477.5033856709488,8,476.0188234616071,1.75,0.7281219844085501,0.27187801559144986,-0.9851151015486103,1,553.4701646137983,1.6827559126541018,0,74,556.1564298514277,60,554.4718507332727,1.2333333333333334,0.9593458935048756,0.04065410649512431,-3.1611518396157763,0,499.7673720084131,1.5825404464267194,0,87,502.3694655932486,76,500.78564515011385,1.144736842105263,0.9242696754742685,0.07573032452573145,-2.5018252172176694,0,465.92857419420034,1.5490610194392502,0,28,468.49752770969644,18,466.94715034775436,1.5555555555555556,0.7977903646031741,0.20220963539682593,-1.3725409036850227
94,0,480.00437687849626,1.0657981652766466,1,7,482.0903033907525,54,481.02254058839753,0.12962962962962962,0.0024346326594383294,0.9975653673405617,6.015521791178058,0,558.6571480720304,1.6825342830270529,1,53,561.3595629995689,57,559.6751873376779,0.9298245614035088,0.13785020321931063,0.8621497967806894,1.8332614220590522,1,504.8701861840673,1.1821388276293874,0,41,507.05586475646123,7,505.87243289500475,5.857142857142857,0.9995375802299071,0.00046241977009285216,-7.6785749594098895,0,470.9982992634177,0.6651780772954226,1,54,472.66676582721993,80,472.0002935305238,0.675,1.7565509397243773e-05,0.9999824344906028,10.949555706306269
95,0,484.5911733144894,4.000370172318071,1,7,489.61139963706955,54,485.60930976551026,0.12962962962962962,0.0024346326594383294,0.9975653673405617,6.015521791178058,1,563.8605917380191,1.1154944421723485,1,26,565.9955954672769,84,564.8789758919738,0.30952380952380953,1.789623638170923e-08,0.9999999821037636,17.83867538631585,1,509.55735453078523,1.665673088748008,1,15,512.2426206595264,19,510.57564347516745,0.7894736842105263,0.039247814862377384,0.9607521851376226,3.197820733467969,1,475.16805965127423,0.932827418204397,1,14,477.12003764137626,57,476.18589941132814,0.24561403508771928,8.923625910428612e-07,0.999999107637409,13.929392402398468
96,1,492.1121399807744,4.768384943716228,0,16,497.90063470462337,10,493.1303720367141,1.6,0.6987856383361564,0.30121436166384363,-0.8415218498783783,1,568.4965965515003,1.5654015238396823,0,33,571.0659147081897,25,569.4987867684104,1.32,0.9214153222749043,0.0785846777250957,-2.4617341411570335,1,514.7440175944939,1.448864120990038,0,72,517.1959367208183,51,515.7458573924378,1.411764705882353,0.9923584450630535,0.007641554936946527,-4.866483269519669,0,479.62121018208563,0.7152330703102052,1,12,481.3396961824037,23,480.6229970417917,0.5217391304347826,0.01594006513576829,0.9840599348642317,4.122851044949322
97,0,500.4051277311519,1.7660268261097372,1,9,503.18742592586204,7,501.4195071537979,1.2857142857142858,0.6852096490340426,0.3147903509659574,-0.7778179836621133,0,573.5666499161161,1.6661159517243505,0,41,576.2369104507379,22,574.5686809238978,1.8636363636363635,0.9964986944859675,0.003501305514032532,-5.651111926596649,1,519.6970112859271,0.7822555284947157,1,19,521.4990368415602,37,520.7152532180771,0.5135135135135135,0.0010112131463946294,0.9989887868536054,6.89559280910302,0,483.8404582547955,0.935014474671334,0,95,485.7941879448481,16,484.8580463612452,5.9375,0.9999999920117084,7.988291594222025e-09,-18.645288910037003
98,0,505.6878356039524,1.5323234787210822,1,60,508.22393586393446,70,506.6897465130314,0.8571428571428571,0.010124202085243339,0.9898757979147567,4.582650675115034,0,578.7375836344436,0.9494432802312076,0,80,580.7061932892539,60,579.7549611735158,1.3333333333333333,0.9922658846099282,0.007734115390071812,-4.854349987294626,1,524.0003681965172,1.4326342334970832,0,97,526.4524263842031,61,525.0185117586516,1.5901639344262295,0.9999248158285972,7.518417140284331e-05,-9.49549464883035,0,488.29370241519064,1.0647951057180762,0,68,490.36249632621184,63,489.2964279395528,1.0793650793650793,0.08989230748705868,0.9101076925129413,2.314950565554157
99,1,510.7244032211602,2.2007007589563727,0,54,513.9449822539464,31,511.7425945852883,1.7419354838709677,0.6271339976660772,0.3728660023339228,-0.5199411181577983,1,583.2065093377605,2.016433343756944,0,75,586.2427490544505,70,584.2245482085273,1.0714285714285714,0.5835630295274175,0.41643697047258255,-0.3374173468917549,1,528.9532386292703,0.8320541265420616,1,40,530.7885310691781,93,529.9551716619171,0.43010752688172044,1.256897743662222e-07,0.9999998743102256,15.889448948482428,0,492.8637921256013,1.397904044482857,1,60,495.2819193317555,61,493.8828048212454,0.9836065573770492,0.024153526695527283,0.9758464733044727,3.6988748697198077
