,self_acceptUp,self_cue_times,self_decision_times,self_decisions,self_punishment_values,self_response_times,self_reward_values,self_trial_times,self_punishment_reward_ratio,self_prob_reject,self_prob_accept,self_SV,harm_other_acceptUp,harm_other_cue_times,harm_other_decision_times,harm_other_decisions,harm_other_punishment_values,harm_other_response_times,harm_other_reward_values,harm_other_trial_times,harm_other_punishment_reward_ratio,harm_other_prob_reject,harm_other_prob_accept,harm_other_SV,harm_self_acceptUp,harm_self_cue_times,harm_self_decision_times,harm_self_decisions,harm_self_punishment_values,harm_self_response_times,harm_self_reward_values,harm_self_trial_times,harm_self_punishment_reward_ratio,harm_self_prob_reject,harm_self_prob_accept,harm_self_SV,other_acceptUp,other_cue_times,other_decision_times,other_decisions,other_punishment_values,other_response_times,other_reward_values,other_trial_times,other_punishment_reward_ratio,other_prob_reject,other_prob_accept,other_SV
0,0,0.0032940167002379894,2.2602328644134104,0,43,3.2864621356129646,7,1.0251223109662533,6.142857142857143,0.09855565850034165,0.9014443414996584,2.213376851350615,0,0.003754657693207264,2.3768291315063834,1,12,3.40353445103392,23,1.0254976185970008,0.5217391304347826,0.13362020046177592,0.8663797995382241,1.8693219292818637,0,0.003489572089165449,1.6768177533522248,0,62,2.7028250005096197,17,1.0248173237778246,3.6470588235294117,0.30540917146548485,0.6945908285345151,0.8216705129428481,1,0.0033516958355903625,1.1760375085286796,0,33,2.201780459843576,25,1.0248086326755583,1.32,0.04703497961181591,0.9529650203881841,3.008686626290772
1,1,5.787538676522672,1.316443299409002,1,43,8.123779657296836,93,6.806206088978797,0.46236559139784944,4.5075054799781356e-14,0.9999999999999549,30.730447410075325,1,5.9046674855053425,1.9001598414033651,1,52,8.823858985677361,68,6.922492628451437,0.7647058823529411,0.0034480069299092087,0.9965519930700908,5.66650495134285,0,5.204417490866035,1.1670964928343892,0,28,7.390281741507351,18,6.222276214044541,1.5555555555555556,0.24761590220605412,0.7523840977939459,1.1113681977590832,1,4.703448406420648,2.0331685137934983,0,12,7.755947640165687,9,5.721596314106137,1.3333333333333333,0.24938785156103538,0.7506121484389646,1.1018797501425008
2,0,10.624214618932456,0.949265502858907,1,38,12.592838890850544,43,11.642388995736837,0.8837209302325582,5.882890560249265e-07,0.999999411710944,14.346046829671131,0,11.324846242554486,1.5329500455409288,0,50,13.860657318029553,7,12.326552509795874,7.142857142857143,0.9745235292427386,0.025476470757261463,-3.644193352795842,1,9.891726478934288,1.5208426169119775,0,62,12.475741291884333,43,10.953653838019818,1.441860465116279,0.28731842920439143,0.7126815707956086,0.9084436057500361,0,10.257228427100927,1.9652113416232169,1,22,13.226217735558748,31,11.259783680550754,0.7096774193548387,0.025162060338356773,0.9748379396616432,3.656933923529508
3,1,15.093764123506844,1.149539201054722,1,74,17.246243761852384,60,16.09543997142464,1.2333333333333334,8.553797781196693e-09,0.9999999914462022,18.576890459129583,1,16.361274007707834,1.6658137305639684,1,40,19.03057770524174,93,17.363615533336997,0.43010752688172044,2.741451306298437e-05,0.999972585486937,10.504410596077525,0,14.976771610789001,1.8997896695509553,1,6,17.879380038939416,26,15.97844824846834,0.23076923076923078,0.21025989614059948,0.7897401038594005,1.3233595426874576,0,15.727422275580466,2.083770270459354,0,12,18.83037551306188,3,16.74543981347233,4.0,0.3977857886923869,0.6022142113076131,0.4146995737257244
4,1,19.74822894250974,1.332976988516748,1,82,22.098969839513302,40,20.764776458963752,2.05,8.872666546033692e-06,0.999991127333454,11.632526308858134,0,21.531918146647513,2.1996866376139224,1,43,24.73439075332135,7,22.533489698544145,6.142857142857143,0.9563165562110717,0.04368344378892831,-3.0861198143347153,0,20.380436036270112,2.033407526090741,1,7,23.432770134415478,54,21.39837811747566,0.12962962962962962,0.19648888898403927,0.8035111110159607,1.4083851282530997,1,21.33124504191801,1.8162236455827951,0,58,24.166742123197764,6,22.349321838468313,9.666666666666666,0.2847338383792636,0.7152661616207364,0.9210998839513713
5,0,24.60007047886029,0.6346351373940706,1,37,26.25327228847891,52,25.617995572276413,0.7115384615384616,2.8611738200901016e-08,0.9999999713882618,17.369448748105896,0,27.23492724588141,1.63239909382537,1,35,29.888012907467782,62,28.2544732731767,0.5645161290322581,0.0022595298185210666,0.9977404701814789,6.090336445836594,1,25.93427136586979,1.7999194865114987,1,88,28.736964179202914,96,26.935921534430236,0.9166666666666666,0.2960152242863371,0.7039847757136629,0.8663458441162852,0,26.668178169056773,1.5832946170121431,0,40,29.270573580637574,15,27.686166077386588,2.6666666666666665,0.13145420183617218,0.8685457981638278,1.8881618008306527
6,0,28.753800089471042,0.814769031945616,1,95,30.571368917357177,16,29.755481468513608,5.9375,0.040446904143044526,0.9595530958569555,3.166477545747517,1,32.388995818793774,2.049633462447673,1,26,35.45803822297603,84,33.40717888670042,0.30952380952380953,3.631211769172804e-05,0.9999636878823083,10.223322738913451,0,31.237914300058037,2.200670339167118,0,41,34.457519507966936,22,32.25561460386962,1.8636363636363635,0.2659581227395579,0.7340418772604421,1.015227217397526,1,31.7713609370403,1.6664158031344414,1,26,34.44074641214684,84,32.77297634072602,0.30952380952380953,5.8807468155119835e-05,0.9999411925318449,9.741182892486513
7,0,33.072412667796016,0.8654853557236493,1,6,34.941109078004956,26,34.07423626864329,0.23076923076923078,4.7299948689794036e-05,0.9999527000513102,9.958954046181974,0,37.95948572549969,2.2513143671676517,0,9,41.229985430371016,7,38.97781220078468,1.2857142857142858,0.59278172787232,0.4072182721276801,-0.3754769132378166,1,36.958348345477134,2.450152809266001,1,3,40.42797093605623,18,37.97656854940578,0.16666666666666666,0.2104978344649916,0.7895021655350084,1.3219272111192333,1,36.94245149428025,1.049116327892989,1,52,39.01022338308394,68,37.95992858894169,0.7647058823529411,0.00033510697319438787,0.9996648930268056,8.00072559100953
8,1,37.44202956929803,0.4976975857280195,1,55,38.94308438198641,95,38.44437623070553,0.5789473684210527,3.708144902248023e-14,0.9999999999999629,30.925659576700365,0,43.73065584851429,2.0820995583198965,0,28,46.81593367084861,18,44.73260863404721,1.5555555555555556,0.5455028433679242,0.4544971566320758,-0.18251636010344036,1,42.928938834927976,1.8162892255932093,1,69,45.747906177770346,61,43.930508016608655,1.1311475409836065,0.2870897274095836,0.7129102725904164,0.9095607616449389,1,41.511427528224885,0.9992284462787211,1,58,43.53004437312484,58,42.529619683045894,1.0,0.0010305192644732841,0.9989694807355267,6.876661412896752
9,1,41.44538166048005,0.5490053161047399,1,42,43.01329023996368,39,42.463062210939825,1.0769230769230769,2.5911024920111103e-06,0.999997408897508,12.863424509128691,1,49.31665031099692,2.866862537804991,0,97,53.18677763128653,61,50.31881603458896,1.5901639344262295,0.27048741149151745,0.7295125885084826,0.9921510648860745,0,48.24901313800365,1.6498102131299675,0,80,50.91819397173822,60,49.267201737035066,1.3333333333333333,0.3071287043743921,0.6928712956256079,0.8135773691200425,1,46.03103597601876,0.748747262172401,1,54,47.79938457440585,78,47.049465166870505,0.6923076923076923,0.00010587933352179668,0.9998941206664782,9.153104590342297
10,1,45.5138579425402,0.5489097111858428,1,4,47.0658416217193,22,46.51575462939218,0.18181818181818182,0.00016478478844084155,0.9998352152115592,8.710705449532389,1,55.68769654259086,2.2165825976990163,1,24,58.907351528294384,69,56.68964616768062,0.34782608695652173,0.0003177120165925862,0.9996822879834074,8.054047431196608,0,53.41909945104271,1.2331269532442093,0,78,55.671483642887324,65,54.43714977847412,1.2,0.30003961525736444,0.6999603847426356,0.8471092234210059,0,50.30083721270785,1.1821562102995813,1,14,52.502558808773756,57,51.319316576234996,0.24561403508771928,0.0013498650645198396,0.9986501349354802,6.606399866781804
11,1,49.566938310395926,0.298464082647115,1,46,50.88461696496233,36,50.58502656361088,1.2777777777777777,8.191580717298308e-06,0.9999918084192827,11.712395481333116,0,61.40833839029074,2.1171454009599984,0,12,64.54456246225163,3,62.426216076128185,4.0,0.7748049824894143,0.22519501751058565,-1.2356445909004827,1,58.17210151813924,1.7350943563506007,0,56,60.90983329992741,46,59.17384215584025,1.2173913043478262,0.27508185264990415,0.7249181473500959,0.9689900488957623,0,55.00380127504468,1.265694975387305,1,12,57.28893995704129,23,56.02186582470313,0.5217391304347826,0.06266132911663413,0.9373386708833659,2.7053001617816474
12,0,53.38623157842085,0.4815905625000596,1,68,54.87056899815798,63,54.387848562095314,1.0793650793650793,2.5023287886227763e-09,0.9999999974976712,19.80604402071209,0,67.04548058379441,1.8328019767068326,1,77,69.88096462795511,72,68.04700670344755,1.0694444444444444,0.013461368752709646,0.9865386312472904,4.294378475161023,0,63.40919567178935,2.0827577295713127,0,87,66.49415665585548,76,64.41088574193418,1.144736842105263,0.30831265211736714,0.6916873478826329,0.808019671722085,1,59.7899521025829,0.8322970885783434,1,42,61.62502014823258,67,60.79163032118231,0.6268656716417911,0.00038928789474113046,0.9996107121052589,7.8508020350811085
13,0,57.371649489272386,1.19817236950621,1,50,59.57409325661138,7,58.37471634615213,7.142857142857143,0.12565435599865216,0.8743456440013478,1.939940840056403,0,72.38199099572375,1.3822742546908557,1,37,74.76767225423828,52,73.38415513886139,0.7115384615384616,0.01238993372745023,0.9876100662725498,4.3784036033279605,1,68.99632672453299,1.8324286444112659,1,42,71.83181788027287,39,69.99824355961755,1.0769230769230769,0.2566333257714166,0.7433666742285834,1.0635411098524348,1,64.1265802429989,0.8663947856985033,1,40,66.01181271253154,93,65.14427304081619,0.43010752688172044,1.996511495638842e-05,0.9999800348850436,10.821504094255666
14,0,62.07515201950446,0.5318043688312173,1,59,63.60992922075093,65,63.07699181744829,0.9076923076923077,9.070793005605537e-10,0.9999999990929207,20.82079123701872,1,77.26861131377518,1.4319717166945338,1,45,79.70449492288753,40,78.27128864079714,1.125,0.13266186758573373,0.8673381324142663,1.8776253615486918,1,74.33309748210013,1.5831140745431185,0,53,76.93551185633987,40,75.35105852596462,1.325,0.27403766544738006,0.7259623345526199,0.9742325706203989,1,68.5130101419054,1.0159837645478547,1,69,70.54796512098983,61,69.53086254419759,1.1311475409836065,0.0007031869185201156,0.9992968130814799,7.25918438028303
15,1,66.11144862463698,0.6153186401352286,1,43,67.72952518425882,97,67.11303953453898,0.44329896907216493,1.199040866595169e-14,0.999999999999988,32.05466934255287,1,82.20560109289363,1.4327847519889474,1,43,84.64128993684426,97,83.2073737308383,0.44329896907216493,1.871382054541293e-05,0.9999812861794546,10.88622952648369,1,79.43597605312243,1.18262988794595,1,52,81.62160761281848,68,80.4378300732933,0.7647058823529411,0.2542442191574672,0.7457557808425328,1.0761028772548538,0,73.04908590810373,0.6323346989229321,1,59,74.68410030426458,65,74.05066457111388,0.9076923076923077,0.00046088041226699517,0.999539119587733,7.681910971368919
16,1,70.23089683521539,1.23207569681108,1,75,72.48230009106919,70,71.24907753290609,1.0714285714285714,3.228732836646486e-10,0.9999999996771267,21.85376117999273,1,87.14204371254891,1.315728239249438,1,69,89.47763758385554,61,88.16072337236255,1.1311475409836065,0.03825609836624366,0.9617439016337563,3.224445218730578,0,84.12267664726824,1.8996391515247524,0,40,87.02555371727794,15,85.12464009970427,2.6666666666666665,0.2688848812250054,0.7311151187749946,1.0002875914069198,0,77.1852250425145,0.6654087929055095,1,87,78.8536754087545,76,78.18693407531828,1.144736842105263,0.00011845686963607438,0.9998815431303639,9.04084316907162
17,1,74.9835362364538,0.5326253054663539,1,10,76.51904193032533,44,75.98535312106833,0.22727272727272727,1.4144083859690681e-07,0.9999998585591614,15.771384167639837,1,91.97901950636879,1.365956268273294,1,15,94.34786129882559,56,92.98067994695157,0.26785714285714285,0.0011656124682613012,0.9988343875317387,6.753342313956564,1,89.52664487529546,1.849864651914686,1,43,92.37928957026452,97,90.52816704427823,0.44329896907216493,0.22292707598405004,0.77707292401595,1.2486894948109855,1,81.35454493714496,0.5653632031753659,1,46,82.92279287427664,36,82.35633456287906,1.2777777777777777,0.013196379600350583,0.9868036203996494,4.314528534204677
18,1,79.02005131030455,0.5988667286001146,1,66,80.63776085851714,59,80.03775793500245,1.11864406779661,8.718701871579526e-09,0.9999999912812981,18.55779546932688,0,96.84867077833042,1.4998202472925186,1,28,99.36751478305086,41,97.86655676085502,0.6829268292682927,0.03266643967730798,0.967333560322692,3.3881951381062603,0,94.88028709869832,3.3674199683591723,1,15,99.26717605814338,42,95.89865465974435,0.35714285714285715,0.2140039785875244,0.7859960214124756,1.3009571242206877,1,85.42393539007753,0.6826061843894422,1,55,87.12600503442809,95,86.44219351978973,0.5789473684210527,1.5056970769755651e-05,0.9999849430292302,11.10365444284712
19,1,83.13921112660319,0.08212049677968025,1,16,84.22414406109601,10,84.14085457986221,1.6,0.01388671672702868,0.9861132832729713,4.262838487679589,0,101.86853364482522,1.4325358639471233,1,60,104.32012289576232,61,102.88669300917536,0.9836065573770492,0.019040398115317547,0.9809596018846825,3.9419683396091765,1,101.76810563588515,2.7834628340788186,0,15,105.55443424126133,56,102.76973921246827,0.26785714285714285,0.206249742600915,0.793750257399085,1.3476810972707127,0,89.62682241527364,0.43217043252661824,1,86,91.07851240644231,59,90.64507422409952,1.4576271186440677,0.0008324593862009122,0.9991675406137991,7.090293316571038
20,1,93.74763319082558,1.2487279041670263,1,19,96.01474208850414,37,94.76487640896812,0.5135135135135135,2.0479473074042076e-06,0.9999979520526926,13.09867053197514,1,113.82825877750292,1.7161184013821185,0,54,116.56264281459153,31,114.8453518729657,1.7419354838709677,0.5590069261132995,0.4409930738867005,-0.2371326934119555,0,115.0615081996657,1.2993604755029082,1,24,117.37929786648601,90,116.07885966496542,0.26666666666666666,0.20015076302343549,0.7998492369765645,1.3853523584396883,0,100.58498903317377,1.0661126337945461,1,51,102.66959762247279,7,101.60218326374888,7.285714285714286,0.2668126678375292,0.7331873321624708,1.0108544447863246
21,0,98.51584825851023,0.6492326338775456,1,12,100.16814656415954,3,99.51831778371707,4.0,0.10929773052062319,0.8907022694793768,2.0979345872041995,0,119.06378454016522,2.3497485043480992,1,80,122.43284875201061,60,120.08197471918538,1.3333333333333333,0.10045093591417542,0.8995490640858246,2.1922241894254073,0,119.8802890740335,1.7494413838721812,1,37,122.63263099407777,52,120.88200679793954,0.7115384615384616,0.2406645735316898,0.7593354264683102,1.1490394589280588,1,105.1704699168913,1.2162874871864915,1,19,107.40524585405365,37,106.18815204780549,0.5135135135135135,0.012951647314321968,0.987048352685678,4.333496041988628
22,1,102.66878616763279,0.48221317771822214,1,62,104.1538548450917,43,103.67041776888072,1.441860465116279,1.5022396909758484e-06,0.999998497760309,13.408551933904285,1,124.9340489464812,2.266801540274173,1,56,128.22028787294403,46,125.95223398972303,1.2173913043478262,0.1265136147337489,0.8734863852662511,1.932142614307339,1,125.13435266911983,1.699925649445504,1,43,127.85402859281749,93,126.15207114582881,0.46236559139784944,0.2252482046131159,0.7747517953868841,1.235339788225264,1,109.90663409791887,0.46557242749258876,1,53,111.37528562871739,55,110.90847982186824,0.9636363636363636,0.0014783126132584812,0.9985216873867415,6.515374561425649
23,1,106.65500486688688,0.6983074806630611,1,15,108.35578858852386,56,107.65662540635094,0.26785714285714285,3.2157916329822456e-09,0.9999999967842084,19.55519227525226,1,130.72146831452847,2.616522785741836,1,98,134.34072887152433,73,131.72302682930604,1.3424657534246576,0.05866773902105382,0.9413322609789462,2.775406185786752,1,130.35420162929222,2.8165065087378025,1,14,134.19007520377636,57,131.37242657411844,0.24561403508771928,0.2043311882371004,0.7956688117628996,1.3594408844515486,0,113.87627051537856,0.48171540116891265,1,28,115.36085800873116,41,114.8779605855234,0.6829268292682927,0.007974733599404926,0.9920252664005951,4.82347033347277
24,1,110.85761811537668,0.38149874983355403,1,14,112.2597113843076,8,111.87705747643486,1.75,0.02465584306329649,0.9753441569367035,3.6777764766818275,1,136.8421423989348,1.282625305466354,1,3,139.14378474559635,18,137.86048072576523,0.16666666666666666,0.14056521276943923,0.8594347872305608,1.8106034201148677,1,136.69115095445886,1.2469821306876838,1,28,138.94369475077838,82,137.69550017872825,0.34146341463414637,0.20999368120638873,0.7900063187936113,1.3249635031306215,0,117.86227785749361,0.5154855931177735,1,14,119.3972581201233,7,118.88054270297289,2.0,0.29319883406091884,0.7068011659390812,0.8798983966420069
25,1,114.7603138522245,0.4489834299311042,1,88,116.2121440898627,96,115.7620774032548,0.9166666666666666,9.658940314238862e-14,0.9999999999999034,29.968307358028376,1,141.64509832300246,1.1662644944153726,1,75,143.83054341422394,70,142.66307951463386,1.0714285714285714,0.015621975193536364,0.9843780248064636,4.143331405560249,1,141.44471874833107,2.400112829171121,0,6,144.84765310166404,8,142.4464005222544,0.75,0.22040876783222574,0.7795912321677743,1.2632858630517125,1,121.898297525011,0.09812045842409134,1,3,122.99935960629955,18,122.90013139741495,0.16666666666666666,0.10901949373518383,0.8909805062648162,2.1007958408947243
26,1,118.71319613652304,1.081545288208872,1,42,120.79817608324811,67,119.71553094591945,0.6268656716417911,2.4056356906498877e-10,0.9999999997594364,22.14803674063212,0,146.3316278560087,1.4824154488742352,1,14,148.81703075487167,57,147.3335162466392,0.24561403508771928,0.0009217490004578277,0.9990782509995422,6.988315431174486,1,147.3485779389739,1.3829541536979377,1,33,149.73438008641824,25,148.35021151555702,1.32,0.25112554079997806,0.7488744592000219,1.0926183816120651,0,125.50035041896626,0.5159960119053721,1,87,127.01908301655203,85,126.50193145219237,1.0235294117647058,4.226058533041144e-05,0.9999577394146696,10.071613433697985
27,0,123.30182170448825,0.6322185504250228,1,28,124.95119497971609,18,124.31782956747338,1.5555555555555556,0.0015830187470708967,0.9984169812529291,6.446837382359733,0,151.31826729513705,2.016892404295504,1,45,154.3543758513406,42,152.33623742545024,1.0714285714285714,0.10082221878160869,0.8991777812183913,2.1881220135669257,0,152.23534680018201,1.8659708853811026,0,53,155.10454019671306,57,153.23747420264408,0.9298245614035088,0.26289632061841395,0.737103679381586,1.0309688236097139,0,129.5199987674132,0.5993672707118094,1,71,131.1220469204709,64,130.5215742699802,1.109375,0.0004952991692355191,0.9995047008307645,7.609853173796642
28,0,127.45179112674668,0.6313063553534448,1,56,129.0867849793285,59,128.45474302070215,0.9491525423728814,5.899381427809658e-09,0.9999999941006186,18.948418328375865,0,156.85563333006576,1.1980890119448304,1,38,159.07426787354052,43,157.87492019776255,0.8837209302325582,0.05208223317078353,0.9479177668292165,2.90144387803717,0,157.605493478477,1.6658184709958732,0,58,160.27414018986747,58,158.60716735105962,1.0,0.2704788511304723,0.7295211488695277,0.9921944475841139,0,133.62292790599167,1.048987933434546,1,45,135.6914579165168,42,134.6411729985848,1.0714285714285714,0.006705032133319522,0.9932949678666805,4.998169357968901
29,0,131.5883079385385,0.6654328918084502,1,55,133.256680872757,60,132.5901382556185,0.9166666666666666,4.0722347716126706e-09,0.9999999959277652,19.31907390017678,0,161.57529147574678,1.6000131950713694,1,86,164.19430749025196,59,162.59316402627155,1.4576271186440677,0.17384373518409513,0.8261562648159049,1.5586271161638976,1,162.77572161797434,2.514352558646351,1,26,166.31202019844204,84,163.7965184082277,0.30952380952380953,0.20611848071821914,0.7938815192817809,1.348483077492294,0,138.19242660561576,0.5658574244007468,1,77,139.76119878841564,72,139.1942071444355,1.0694444444444444,0.00019402499465848155,0.9998059750053415,8.547329524934181
30,0,135.75735287135467,0.5653225118294358,1,40,137.32598006678745,15,136.75952570559457,2.6666666666666665,0.006804725111521748,0.9931952748884783,4.983310055946856,0,166.6957075856626,1.6159076755866408,0,62,169.33081245049834,17,167.71358487661928,3.6470588235294117,0.9547137277028084,0.045286272297191565,-3.0484075872094563,1,168.81279609818012,1.3160620657727122,1,25,171.13176028011367,37,169.81455095810816,0.6756756756756757,0.23146696485548568,0.7685330351445143,1.2000463856444763,0,142.262350785546,0.8977069091051817,1,78,144.18063127575442,65,143.28161513479427,1.2,0.0004309193174152348,0.9995690806825848,7.7491586717670815
31,1,139.82713917503133,0.5321026397868991,1,40,141.37822567112744,93,140.84496273798868,0.43010752688172044,4.0190073491430667e-14,0.9999999999999598,30.84515635785129,1,171.8317029173486,1.8997888793237507,1,19,174.73450216045603,37,172.8336067153141,0.5135135135135135,0.02974999085873531,0.9702500091412647,3.484724954948381,1,173.6324583524838,1.0826364462263882,1,55,175.7184216058813,95,174.63457824895158,0.5789473684210527,0.24214665877352348,0.7578533412264765,1.1409463151052532,1,146.68193339603022,0.7825186387635767,1,16,148.4834422119893,10,147.69973286008462,1.6,0.22608216960552474,0.7739178303944753,1.2305671901554942
32,1,143.87928403913975,0.6473458232358098,1,56,145.5311114322394,46,144.88264561165124,1.2173913043478262,4.394657835415927e-07,0.9999995605342165,14.637705536533698,1,177.2358019100502,1.3322378299199045,1,58,179.57109751040116,58,178.2377246711403,1.0,0.025688867992310516,0.9743111320076895,3.635672943999284,1,178.22019384847954,0.7322993013076484,1,24,179.97110485844314,69,179.2376318317838,0.34782608695652173,0.21160691940641352,0.7883930805935865,1.3152663988646514,1,150.98438996309415,0.6666721971705556,1,10,152.66997925145552,44,152.00215782225132,0.22727272727272727,0.00603964507344934,0.9939603549265507,5.103352073935263
33,1,148.03271695924923,0.7326208804734051,1,28,149.78454174520448,82,149.05076057091355,0.34146341463414637,9.630074515598608e-13,0.999999999999037,27.668715245280826,0,182.07242847047746,2.0332826864905655,0,62,185.1244729887694,17,183.09007939137518,3.6470588235294117,0.9547137277028084,0.045286272297191565,-3.0484075872094563,1,182.47224737424403,2.1333796344697475,1,46,185.62492928421125,40,183.49040239304304,1.15,0.2624662990100918,0.7375337009899082,1.033189094361241,1,155.17070734826848,0.5652901167050004,1,37,156.7554561845027,54,156.18885249039158,0.6851851851851852,0.0017538003279617964,0.9982461996720382,6.344214889582107
34,0,152.2857407545671,0.7991064516827464,1,53,154.1040167408064,57,153.303750785999,0.9298245614035088,1.0184298848692208e-08,0.9999999898157012,18.402418621014917,1,187.62607970135286,1.3001324241049588,1,66,189.94564161030576,59,188.6443749666214,1.11864406779661,0.04096840185299577,0.9590315981470042,3.1531229403385423,1,188.12690656352788,1.2157478341832757,1,82,190.36119697103277,40,189.14427264546975,2.05,0.32519821325436504,0.674801786745635,0.7299841151226245,1,159.25673025567085,0.39880438800901175,1,28,160.67469627736136,82,160.2747683362104,0.34146341463414637,7.342287924616553e-05,0.9999265771207538,9.51920153898827
35,1,156.60740833776072,0.615625602658838,1,6,158.23965098755434,8,157.62286074552685,0.75,0.0181587913972161,0.9818412086027839,3.9902747753037953,0,192.44568585697562,1.4163909144699574,1,87,194.86474738223478,76,193.4472040757537,1.144736842105263,0.01601438547443379,0.9839856145255662,4.118123867110156,0,192.86238215351477,1.9833908542059362,1,50,195.865036171861,7,193.880499641411,7.142857142857143,0.29124097468628396,0.708759025313716,0.8893645728914175,1,163.17589686717838,0.5990974437445402,1,98,164.7940129325725,73,164.19380892347544,1.3424657534246576,0.00016063969620117025,0.9998393603037988,8.736185960040533
36,1,160.74217187054455,0.5321887629106641,1,15,162.2927372814156,19,161.75929261976853,0.7894736842105263,0.0006844293899855858,0.9993155706100144,7.286240410447047,0,197.36563152866438,1.916827061213553,1,87,200.28482579393312,85,198.3673626850359,1.0235294117647058,0.004008351547025613,0.9959916484529744,5.515358801192183,0,198.36607241630554,1.8830742524005473,0,45,201.26873536314815,42,199.38444827403873,1.0714285714285714,0.25955431243968274,0.7404456875603173,1.0482863081885077,0,167.29510843614116,0.7815128141082823,1,62,169.0809989189729,16,168.29829618195072,3.875,0.11100093208697537,0.8889990679130246,2.0805575885895298
37,0,164.79373283451423,0.5995829738676548,1,60,166.3960618758574,70,165.79522892972454,0.8571428571428571,1.7970669397016081e-10,0.9999999998202933,22.43969507184533,0,202.7861298895441,1.1655960520729423,1,45,204.95450479909778,60,203.78780139191076,0.75,0.00680958055468972,0.9931904194453103,4.982591881731041,0,203.7693330901675,1.7498455313034356,1,71,206.52184133091941,64,204.77087422227487,1.109375,0.28849014951954255,0.7115098504804575,0.902728320515418,0,171.581175906118,0.44931409507989883,1,6,173.03350629098713,26,172.58297343272716,0.23076923076923078,0.04619207209424547,0.9538079279057545,3.027654134074742
38,0,168.89672439265996,0.5655358443036675,1,14,170.48155382135883,7,169.91479131300002,2.0,0.034020373296635986,0.965979626703364,3.3461831838552096,0,207.45593689475209,1.3168498165905476,1,59,209.7918163947761,65,208.47380509926006,0.9076923076923077,0.009539901365954173,0.9904600986340458,4.64268643485438,1,209.02325683366507,1.3659546878188848,1,42,211.39179245382547,67,210.02473791642115,0.6268656716417911,0.23921481980248716,0.7607851801975128,1.1569890559524834,0,175.53443231340498,0.59891018550843,1,68,177.15246344124898,63,176.5524905421771,1.0793650793650793,0.0005612935442179667,0.999438706455782,7.484705086436186
39,1,172.98224912863225,0.8496339367702603,1,58,174.8345884415321,6,173.98372112493962,9.666666666666666,0.21486441039694892,0.7851355896030511,1.2958492486078208,1,212.29260296095163,1.5173810943961143,1,74,214.81233545718715,60,213.29425787040964,1.2333333333333334,0.0647322732195712,0.9352677267804288,2.6705729366778006,0,213.89316054945812,1.2161492160521448,1,96,216.12870764546096,89,214.91140840761364,1.0786516853932584,0.315267887045826,0.684732112954174,0.7756049733160248,0,179.65373277151957,0.33200948452576995,1,50,180.98852387908846,7,180.6553110391833,7.142857142857143,0.2675056201786843,0.7324943798213157,1.0073150921337743
40,0,184.34129538852721,1.0819818302989006,1,78,186.44154957076535,34,185.3587286309339,2.2941176470588234,5.549202757837435e-05,0.9999445079724216,9.799215701199318,1,224.33431268902496,1.9659350928850472,0,33,227.3194046751596,25,225.35236617736518,1.32,0.37622603067491234,0.6237739693250877,0.5055979659167193,0,225.63544659269974,1.1155331581830978,1,43,227.76962701510638,7,226.65295094624162,6.142857142857143,0.27922258831665414,0.7207774116833459,0.9483210966322595,1,190.49554489925504,0.5821319534443319,1,53,192.09609261155128,40,191.51281972276047,1.325,0.0081834517716185,0.9918165482283815,4.797424120383707
41,1,188.94334591180086,0.3479956197552383,1,54,190.2945233513601,31,189.94533820357174,1.7419354838709677,5.876350941869113e-05,0.9999412364905813,9.74193071858564,0,229.82033504312858,1.664868745021522,0,53,232.48959054332227,57,230.8235816527158,0.9298245614035088,0.02025186641709875,0.9797481335829012,3.879048574033827,0,230.27061901288107,0.8491938393563032,1,60,232.138889152091,61,231.28854450117797,0.9836065573770492,0.27182914096040345,0.7281708590395966,0.9853620064545932,0,194.59706920199096,0.48237594310194254,1,53,196.09892203705385,15,195.6152961216867,3.533333333333333,0.1262893686137595,0.8737106313862405,1.9341733853137923
42,0,192.79589895298705,0.49873975617811084,1,45,194.2973804306239,92,193.7974049244076,0.4891304347826087,6.794564910705958e-14,0.999999999999932,30.32006828716471,1,234.99071607133374,1.6499342620372772,1,6,237.64375551138073,8,235.9927340419963,0.75,0.49526369507166623,0.5047363049283338,0.01894578639749751,1,234.6405539382249,2.014881149865687,0,15,237.6759442742914,42,235.65989492973313,0.35714285714285715,0.2140039785875244,0.7859960214124756,1.3009571242206877,1,198.59924361668527,0.16473718965426087,1,50,199.76656213356182,62,199.60117941442877,0.8064516129032258,0.0006707341705924907,0.9993292658294075,7.306466709287558
43,1,196.79821914481,0.7822432816028595,1,25,198.5834862217307,37,197.8000526218675,0.6756756756756757,2.588843267425922e-06,0.9999974111567326,12.864296808061813,0,240.14437575638294,1.1493926336988807,1,45,242.29664917336777,92,241.14610414765775,0.4891304347826087,4.769967302886702e-05,0.9999523003269711,9.950538314023511,1,240.17743760393932,3.048567983787507,0,97,244.24726420408115,61,241.19760545762256,1.5901639344262295,0.337661091510017,0.662338908489983,0.673734666681571,1,202.26883926382288,0.564547797665,1,42,203.85320805152878,39,203.28782786102965,1.0769230769230769,0.00952786366462155,0.9904721363353785,4.6439612118028615
44,1,201.08503090962768,0.5821750154718757,1,12,202.68633832363412,9,202.10300143482164,1.3333333333333333,0.016504267024911257,0.9834957329750887,4.087494344163952,0,244.797054505907,2.233100089710206,1,55,248.0335165625438,60,245.799302006606,0.9166666666666666,0.014988885432630883,0.9850111145673691,4.185343969643709,0,246.74847309011966,3.0503576090559363,0,71,250.80166881578043,69,247.75020108604804,1.0289855072463767,0.2850770145973638,0.7149229854026362,0.9194154537475696,0,206.35473575163633,0.4482379499822855,1,80,207.80577863333747,60,207.35663204360753,1.3333333333333333,0.0007583649053632957,0.9992416350946367,7.183587230058383
45,0,205.18746503721923,0.38211781019344926,1,86,206.5885311481543,59,206.20528820483014,1.4576271186440677,1.9043314591904448e-08,0.9999999809566854,17.77654971798177,1,250.534703720361,1.5660897199995816,1,25,253.10378997633234,37,251.53637364227325,0.6756756756756757,0.0471386472350398,0.9528613527649602,3.006376207695986,0,253.3028125166893,1.7993024014867842,1,53,256.12112998450175,15,254.32099914038554,3.533333333333333,0.2909454017080133,0.7090545982919867,0.8907969044596418,1,210.30721783963963,0.44883765187114477,1,14,211.7586427447386,57,211.30869299685583,0.24561403508771928,0.0013498650645198396,0.9986501349354802,6.606399866781804
46,1,209.0900446260348,0.6324891676194966,1,26,210.72531265113503,84,210.09168768394738,0.30952380952380953,4.587441537751147e-13,0.9999999999995413,28.410283739437112,1,255.60705436347052,1.0491372663527727,1,50,257.6730630961247,62,256.62279674597085,0.8064516129032258,0.007432265161428031,0.992567734838572,4.89446457770561,0,258.6227303757332,1.4829977685585618,1,45,261.1085607302375,60,259.62443071743473,0.75,0.248176763933998,0.751823236066002,1.1083599878242527,1,214.2606085673906,0.5812399061396718,1,24,215.84502792265266,69,215.2626379947178,0.34782608695652173,0.00032997826184932855,0.9996700217381507,8.016153746140679
47,0,213.22592657571658,0.5148728536441922,1,71,214.74463981529698,69,214.2285114582628,1.0289855072463767,3.847540064327859e-10,0.999999999615246,21.678416929798356,0,260.1744078830816,1.864744221791625,1,60,263.04340611957014,40,261.1775454557501,1.5,0.3358700534664455,0.6641299465335545,0.6817534934177065,1,263.61079953983426,0.7309252796694636,1,45,265.36157069867477,40,264.62942902650684,1.125,0.26083918230396785,0.7391608176960321,1.0416114548956472,0,218.3456264398992,0.4003933225758374,1,62,219.7482305224985,17,219.3472884609364,3.6470588235294117,0.10019249080570836,0.8998075091942916,2.195087617992327
48,0,217.24517828319222,0.6154391337186098,1,45,218.86392328562215,42,218.24726064829156,1.0714285714285714,1.0773366763139336e-06,0.9999989226633237,13.741017525626921,1,265.5455564353615,1.2322293752804399,1,28,267.796524729114,82,266.5631947144866,0.34146341463414637,5.809478826590553e-05,0.9999419052117341,9.75337650447846,0,267.8626033873297,1.5825463724322617,1,14,270.44824664108455,7,268.8645261484198,2.0,0.2327996884398179,0.7672003115601821,1.1925695521300337,0,222.25086873862892,0.43050801660865545,1,24,223.70041078422219,90,223.2686441037804,0.26666666666666666,2.9790704139331936e-05,0.9999702092958607,10.421284363602092
49,0,221.36518234433606,0.6817086059600115,1,77,223.05008225142956,72,222.36711656162515,1.0694444444444444,1.7986345746123789e-10,0.9999999998201365,22.438823122377812,1,270.2979343063198,1.0330270822159946,1,10,272.3500056890771,44,271.3156986096874,0.22727272727272727,0.00502153036322639,0.9949784696367736,5.288986357890788,1,272.94890125701204,1.6497043366543949,1,16,275.6017589685507,10,273.95080426475033,1.6,0.23402221684006796,0.765977783159932,1.185737111000513,1,226.20177216362208,0.3988225609064102,1,15,227.6192475198768,56,227.21925636893138,0.26785714285714285,0.0015080793255148883,0.9984919206744851,6.495409190031573
50,0,225.55099918786436,0.9161147666163743,1,87,227.4864146495238,76,226.56912339152768,1.144736842105263,7.055889206242227e-11,0.9999999999294411,23.37457340634591,1,274.8508143783547,1.2328081391751766,1,17,277.1030855830759,82,275.8691720631905,0.2073170731707317,2.4170603884821062e-05,0.9999758293961152,10.63034920777377,1,278.10516478773206,1.4994002976454794,1,58,280.62140060123056,6,279.1208257875405,9.666666666666666,0.3060506716703466,0.6939493283296534,0.8186482619697388,0,230.12073176307604,0.4319235193543136,1,28,231.5721637797542,18,231.1390851023607,1.5555555555555556,0.10071731865406697,0.899282681345933,2.189279657208453
51,0,229.98727232636884,0.8490701848641038,1,62,231.85608606925234,17,231.0058437390253,3.6470588235294117,0.008267458409096928,0.9917325415909031,4.787126320389724,0,279.6037243963219,1.766729639377445,0,62,282.3731835107319,16,280.60522681241855,3.875,0.9609716241338113,0.039028375866188646,-3.2036559132185736,0,283.12225590785965,1.600136058870703,0,59,285.74155557574704,65,284.1403279635124,0.9076923076923077,0.26754109159977635,0.7324589084002237,1.0071340735747198,1,234.07320832042024,0.44848604779690504,1,66,235.5248212744482,59,235.07514767348766,1.11864406779661,0.0008934679172668547,0.9991065320827331,7.019506263520044
52,0,234.3568959441036,0.5155314197763801,1,15,235.8918513180688,42,235.37525283871219,0.35714285714285715,3.3374571073441217e-07,0.9999996662542893,14.912886145300869,0,284.874545680359,1.580360105726868,1,6,287.4762995131314,26,285.8948016320355,0.23076923076923078,0.056603509907933613,0.9433964900920664,2.8134156545616102,0,288.2425937955268,1.8996190032921731,0,45,291.14508489053696,92,289.24431230966,0.4891304347826087,0.2287897383761569,0.7712102616238431,1.215157640510022,0,238.0260155433789,0.131404725369066,1,7,239.1772479750216,54,239.04462527669966,0.12962962962962962,0.0019498826335614394,0.9980501173664386,6.238034310005555
53,0,238.39293931564316,0.44530778424814343,1,7,239.86130679771304,54,239.41477314010262,0.12962962962962962,4.566567790575959e-09,0.9999999954334322,19.20450394014697,1,289.97730889357626,1.5831689881160855,1,14,292.5632942696102,57,290.9788946672343,0.24561403508771928,0.0009217490004578277,0.9990782509995422,6.988315431174486,0,293.6466098250821,1.264824656303972,0,54,295.9317959146574,80,294.6656647925265,0.675,0.24986971252819756,0.7501302874718024,1.0993072759432048,0,241.67806812096387,0.26519364304840565,1,78,242.9465621020645,34,242.68015325209126,2.2941176470588234,0.01479256154530284,0.9852074384546972,4.198727760280637
54,0,242.36233830172569,0.7825850094668567,1,22,244.1643401538022,31,243.38053045608103,0.7096774193548387,1.6836847831602775e-05,0.9999831631521684,10.991923913078029,0,295.0644292794168,1.2822622447274625,1,60,297.3495936403051,70,296.06612013978884,0.8571428571428571,0.004776766216745276,0.9952232337832547,5.339203273691218,0,298.4327108752914,1.7498530372977257,1,87,301.18552923901007,85,299.4345467230305,1.0235294117647058,0.30194426294328225,0.6980557370567178,0.838056511539958,1,245.44766195118427,0.44905296014621854,1,43,246.91601758170873,93,246.4657118837349,0.46236559139784944,1.975424986655483e-05,0.9999802457501334,10.832122152204025
55,1,246.6654617311433,0.7986339586786926,1,45,248.48327075550333,40,247.6835393179208,1.125,2.0910734089829575e-06,0.999997908926591,13.077830939940796,1,299.8513358584605,1.5514645692892373,1,46,302.42127939639613,36,300.8692838656716,1.2777777777777777,0.23560873357582512,0.7643912664241749,1.17690726630349,1,303.6863248916343,1.6501400885172188,1,14,306.35564755182713,8,304.704285540618,1.75,0.23220414235056952,0.7677958576494305,1.1959069787764645,1,249.41693925857544,0.5157388267107308,1,82,250.95156910223886,40,250.43477506795898,2.05,0.0073910619126318355,0.9926089380873682,4.900065347307626
56,0,250.98494976386428,0.6968939527869225,1,96,252.70303991390392,89,252.0050149015151,1.0786516853932584,1.3462564396604648e-12,0.9999999999986537,27.33369338304408,1,304.92094240989536,2.1499540149234235,1,42,308.09015089739114,39,305.93901960132644,1.0769230769230769,0.12329924756593003,0.87670075243407,1.9615514091657722,0,308.8570756968111,1.68288707267493,0,55,311.5587684530765,60,309.87469698814675,0.9166666666666666,0.2642224668617654,0.7357775331382346,1.0241363824801928,0,253.45275981584564,0.8160754977725446,1,35,255.27166513400152,62,254.45444830553606,0.5645161290322581,0.0007072799866608692,0.9992927200133391,7.253376419499334
57,0,255.2042673677206,0.5654382645152509,1,62,256.7893421286717,16,256.2225725091994,3.875,0.011480788235109451,0.9885192117648905,4.4555330275630896,0,310.5914771165699,1.3831019066274166,1,58,312.99350757105276,58,311.60930067906156,1.0,0.025688867992310516,0.9743111320076895,3.635672943999284,0,314.0602843016386,1.3326858286745846,0,38,316.4121143813245,43,315.0782947279513,0.8837209302325582,0.24776272625262508,0.7522372737473749,1.11058025857578,1,257.7721842438914,0.4818750061094761,1,72,259.25737578514963,51,258.77435470791534,1.411764705882353,0.0021838010202291924,0.9978161989797708,6.1245021442128476
58,0,259.2901934850961,0.7489783726632595,1,14,261.0422944179736,57,260.29218340618536,0.24561403508771928,2.2198021198960305e-09,0.9999999977801979,19.925847777997166,0,315.49450865527615,1.1990055530332029,1,54,317.69658185495064,80,316.49645116878673,0.675,0.0006294495008650758,0.9993705504991349,7.370035281034881,0,318.91287921881303,1.2158742537721992,0,12,321.1314817625098,23,319.91446025203913,0.5217391304347826,0.22049001292933956,0.7795099870706604,1.2628130995417302,1,261.759236916434,0.41365116788074374,1,87,263.1934154429473,89,262.7785893641412,0.9775280898876404,2.6729030978001056e-05,0.999973270969022,10.529733551308293
59,0,263.5433476502076,0.7324703624472022,1,24,265.2951337201521,90,264.561418521218,0.26666666666666666,5.795364188543317e-14,0.999999999999942,30.479132981794404,1,320.1981751350686,1.1323185013607144,1,4,322.3329837047495,22,321.1998608596623,0.18181818181818182,0.08691709621230193,0.9130829037876981,2.3518719329426063,1,323.6325373649597,2.7841138942167163,0,15,327.4193787588738,19,324.6341405212879,0.7894736842105263,0.22719882092845178,0.7728011790715482,1.2241963113527914,0,265.6941004781984,0.7824020963162184,1,58,267.47924666665494,58,266.6957542025484,1.0,0.0010305192644732841,0.9989694807355267,6.876661412896752
60,0,274.8013693597168,0.7156202299520373,1,45,276.5357913225889,60,275.8190139597282,0.75,2.755417671806981e-09,0.9999999972445823,19.709696798065387,1,331.84019198361784,2.16577343409881,0,58,335.0247201388702,6,332.8578192014247,9.666666666666666,0.9883097385477428,0.011690261452257102,-4.437240008474818,0,336.9265870382078,1.4828456700779498,1,51,339.42762130731717,7,337.94358847942203,7.285714285714286,0.2929825674123683,0.7070174325876317,0.8809422123570116,0,276.9864051681943,0.615923082921654,1,7,278.6205749241635,54,278.0033947573975,0.12962962962962962,0.0019498826335614394,0.9980501173664386,6.238034310005555
61,0,279.0368737890385,0.6324457107111812,1,28,280.68872883636504,41,280.05517261009663,0.6829268292682927,7.726158358645208e-07,0.9999992273841641,14.07348311746047,1,337.5268080350943,1.982826312072575,0,82,340.52854511747137,40,338.5444913515821,2.05,0.7450135335739049,0.2549864664260951,-1.0721919131744047,1,341.9285611570813,0.9820136721245944,1,40,343.9138249945827,93,342.93058110261336,0.43010752688172044,0.22086944064901914,0.7791305593509809,1.2606068698284827,0,281.12150173680857,0.41548266913741827,1,9,282.5561495954171,7,282.1394043113105,1.2857142857142858,0.29687956667728743,0.7031204333227126,0.8622016333792616
62,0,283.19008468510583,0.8157001896761358,1,41,285.0246431021951,22,284.2078185691498,1.8636363636363635,0.000698832204798383,0.9993011677952016,7.2654008184052845,1,343.0301265460439,0.6993468855507672,1,15,344.74832257209346,42,344.0478912447579,0.35714285714285715,0.010152149888489115,0.9898478501115109,4.579865749828891,0,346.41468346165493,1.2486615339294076,1,60,348.6667219749652,40,347.41686972789466,1.5,0.2859214093022402,0.7140785906977598,0.915276046879557,0,285.0569152231328,0.532399330753833,1,95,286.59246911434457,16,286.0589466257952,5.9375,0.09998815223304591,0.9000118477669541,2.197356226123651
63,0,287.5258594942279,0.8984440928325057,1,78,289.4436552445404,65,288.5440729819238,1.2,1.9053354449738436e-09,0.9999999980946646,20.078607755363393,1,347.24887052131817,1.1827811966650188,1,88,349.43474030308425,96,348.2507798499428,0.9166666666666666,0.0007894647509086861,0.9992105352490913,7.143365596083738,0,351.1675871582702,0.9494093051180243,1,35,353.1200921596028,62,352.1695205857977,0.5645161290322581,0.2316071610204541,0.7683928389795459,1.1992584464611733,0,289.09331177873537,0.5816863249056041,1,96,290.67791325738654,89,290.0951278731227,1.0786516853932584,2.5891039443282082e-05,0.9999741089605567,10.561587725185548
64,1,291.94516911776736,0.4322980372235179,1,33,293.39687293581665,25,292.963407099247,1.32,0.00018916929885903766,0.999810830701141,8.57267899550668,0,351.9358042017557,2.0166526027023792,1,71,354.9713644133881,64,352.9535989249125,1.109375,0.028450109439950078,0.9715498905600499,3.5307406143404694,1,355.6209454908967,0.46542190900072455,0,75,357.0893441834487,70,356.6227738321759,1.0714285714285714,0.29130313870552393,0.7086968612944761,0.8890634382563753,0,293.17946229083464,0.3158949548378587,1,53,294.51437902776524,57,294.19729256955907,0.9298245614035088,0.0011760295035118107,0.9988239704964882,6.744434620231299
65,1,295.8980608833954,0.5318403197452426,1,14,297.4492054535076,57,296.9162174826488,0.24561403508771928,2.2198021198960305e-09,0.9999999977801979,19.925847777997166,1,357.4724709787406,1.449616712052375,1,94,359.9414006327279,46,358.4906801208854,2.0434782608695654,0.7497725241094086,0.2502274758905914,-1.0973994516244885,0,359.5903989956714,1.3987905606627464,1,12,361.9923547836952,3,360.59228067006916,4.0,0.23217604792912494,0.7678239520708751,1.1960645666131247,1,297.01621368993074,0.3819202799350023,1,74,298.41691634524614,60,298.03388515440747,1.2333333333333334,0.0007746292396264565,0.9992253707603735,7.162351114143054
66,1,299.95190450921655,0.5826249890960753,1,32,301.55251148017123,16,300.96865311125293,2.0,0.003585013274207016,0.996414986725793,5.627401647395444,1,362.4435406769626,1.1147860982455313,1,72,364.5781438150443,51,363.46222468232736,1.411764705882353,0.1926647177464954,0.8073352822535046,1.4327875850132095,1,364.4956191708334,0.4816620680503547,1,10,365.9948748764582,44,365.51210150215775,0.22727272727272727,0.20591226376176597,0.794087736238234,1.349743780185578,1,300.91794508323073,0.44827785110101104,1,25,302.36916139675304,37,301.9197252271697,0.6756756756756757,0.012682956061848216,0.9873170439381518,4.354732157903939
67,1,304.0534643670544,0.5991578884422779,1,53,305.65534777985886,55,305.05498574627563,0.9636363636363636,1.976739327780308e-08,0.9999999802326067,17.739232041102376,1,367.0792973921634,1.165994273032993,1,16,369.26474011316895,10,368.0974966576323,1.6,0.6148642100933572,0.3851357899066427,-0.467805473671591,1,368.496481588576,0.46508294716477394,1,58,369.98100310657173,58,369.5148436189629,1.0,0.2704788511304723,0.7295211488695277,0.9921944475841139,1,304.8705504303798,0.381997711956501,1,15,306.2554869991727,42,305.8723230678588,0.35714285714285715,0.007450551489623591,0.9925494485103764,4.891988778392413
68,1,308.15620032092556,1.1820965562947094,1,37,310.34186032554135,54,309.15845414297655,0.6851851851851852,1.4740966891579887e-08,0.9999999852590331,18.032635341151924,0,371.76577951805666,2.5506329662166536,1,41,375.33575308090076,22,372.7840333022177,1.8636363636363635,0.6451860922482857,0.3548139077517143,-0.5979453417804914,0,372.48247905401513,0.4130593668669462,1,77,373.91711861640215,72,373.50294004241005,1.0694444444444444,0.29340711074217685,0.7065928892578232,0.878893570480424,0,308.7565481327474,0.49902815045788884,1,62,310.2742812265642,17,309.7741137207486,3.6470588235294117,0.10019249080570836,0.8998075091942916,2.195087617992327
69,0,312.8427503975108,0.6650287448428571,1,12,314.5102482717484,23,313.8443748871796,0.5217391304347826,0.00016166857924460043,0.9998383314207554,8.72980044373689,1,377.83649698039517,1.2159141548909247,1,53,380.0717797805555,55,378.85474444320425,0.9636363636363636,0.02742340674551713,0.9725765932544829,3.5685519220155917,0,376.41827574931085,0.3822019584476948,1,56,377.81954847695306,59,377.43614829936996,0.9491525423728814,0.26651500488255286,0.7334849951174471,1.012376595299357,1,312.77557465527207,0.44952268758788705,1,41,314.24404129805043,7,313.79334251442924,5.857142857142857,0.27379336454969405,0.726206635450306,0.9754609182608327
70,0,317.01182179898024,0.43124994076788425,1,80,318.4471384957433,60,318.01471403893083,1.3333333333333333,1.0812999717835226e-08,0.9999999891870003,18.34251673826497,0,382.57301316037774,1.3490314688533545,1,56,384.92512965900823,59,383.57491498300806,0.9491525423728814,0.01888408974972311,0.9811159102502769,3.9503708524258636,1,380.32096635038033,0.7656914195977151,1,72,382.1060469583608,51,381.3391912947409,1.411764705882353,0.2992400251185763,0.7007599748814237,0.8509194135774181,1,316.7451838138513,0.5649503646418452,1,97,318.3130114059895,61,317.74700227892026,1.5901639344262295,0.0006368837970488483,0.9993631162029512,7.358286254554689
71,0,320.9480099999346,0.5155393211171031,1,53,322.4663214622997,15,321.9496190822683,3.533333333333333,0.011256376291241876,0.9887436237087581,4.475500320686155,1,387.4260371136479,1.3502067746594548,1,37,389.7953276950866,54,388.4439752441831,0.6851851851851852,0.009112984475105113,0.9908870155248949,4.688900255346206,0,384.60707964748144,0.7327595469541848,1,78,386.358911939431,34,385.6250102715567,2.2941176470588234,0.32220672440642883,0.6777932755935712,0.7436489973816673,1,320.8143206378445,0.6639253394678235,1,32,322.4828879418783,16,321.8177766292356,2.0,0.12191952946032725,0.8780804705396728,1.974377009013057
72,0,324.9672000776045,0.3317661271430552,1,9,326.30252965306863,7,325.969439282082,1.2857142857142858,0.028154363765835022,0.971845636234165,3.541494620493932,1,392.2959056692198,1.8314939299598336,0,12,395.14903826406226,9,393.3165254718624,1.3333333333333333,0.5754578363517739,0.424542163648226,-0.3041546348457788,0,388.8596321353689,0.6150278756394982,1,7,390.47846563113853,54,389.86220753658563,0.12962962962962962,0.19648888898403927,0.8035111110159607,1.4083851282530997,1,324.9839613218792,0.6656051380559802,1,75,326.65229158941656,70,325.9855486759916,1.0714285714285714,0.00024569085928671797,0.9997543091407133,8.31119076082321
73,1,328.8035536506213,0.23193703033030033,1,94,330.0547226355411,46,329.8216596818529,2.0434782608695654,1.938995394690224e-06,0.9999980610046053,13.1533386178046,0,397.6496675959788,1.6825504805892706,1,24,400.35164084564894,90,398.66797866346315,0.26666666666666666,1.2197561844340399e-05,0.9999878024381557,11.314262277385822,0,392.9790787654929,0.548738650046289,1,9,394.53105928422883,7,393.98105406947434,1.2857142857142858,0.225363129571576,0.774636870428424,1.2346813548020639,0,329.1534499078989,0.4314083601348102,1,37,330.6050344174728,52,330.17230971483514,0.7115384615384616,0.0022042641867477952,0.9977957358132522,6.115154830776502
74,1,332.556222286541,0.49930943362414837,1,3,334.0741908363998,18,333.5737938005477,0.16666666666666666,0.0005967624045646325,0.9994032375954354,7.423394565553325,1,402.8531448422,2.666886715218425,0,14,406.52283490868285,8,403.85479106009007,1.75,0.6499575324930892,0.3500424675069108,-0.618852543272361,1,397.03217533091083,0.5488816620782018,1,50,398.5841297758743,62,398.0340775488876,0.8064516129032258,0.25484760063334444,0.7451523993666556,1.0729230384450832,1,333.10606473637745,0.5488441311754286,1,6,334.65782481106,8,334.10778246074915,0.75,0.27565582055851157,0.7243441794414884,0.9661136048244108
75,0,336.57507498236373,0.6159270340576768,1,7,338.1936125778593,54,337.5765671269037,0.12962962962962962,4.566567790575959e-09,0.9999999954334322,19.20450394014697,0,409.0239975727163,1.9334535896778107,1,68,411.97645319160074,63,410.0418156045489,1.0793650793650793,0.026219904639976255,0.9737800953600237,3.61466666195755,1,401.08494834182784,0.5150751248002052,1,12,402.61964771617204,9,402.1033929400146,1.3333333333333333,0.22862542386013684,0.7713745761398632,1.2160891264917062,0,337.15952673275024,0.13324807910248637,1,60,338.3108879541978,40,338.1770954816602,1.5,0.007984792921809425,0.9920152070781906,4.822199588951538
76,1,340.69464961253107,0.3988150544464588,1,54,342.09620875958353,78,341.696265806444,0.6923076923076923,1.0016210083563237e-11,0.9999999999899838,25.32681632698411,1,414.477566473186,1.6664620251394808,1,42,417.1467512571253,67,415.4791842470877,0.6268656716417911,0.0018174449535297565,0.9981825550464702,6.308504537421073,1,405.12096050335094,0.7820852571167052,1,54,406.92271070182323,78,406.1394525091164,0.6923076923076923,0.25112290023043515,0.7488770997695648,1.0926324226503443,0,340.81122849695385,0.2818600726313889,1,71,342.0959812044166,69,341.8129379246384,1.0289855072463767,0.0002794232828139398,0.9997205767171861,8.182503320810142
77,1,344.5970723624341,0.4479689132422209,1,69,346.0650684875436,61,345.615980762057,1.1311475409836065,5.050416085339293e-09,0.9999999949495839,19.10379519886636,0,419.64768518088385,1.5160505301319063,1,7,422.1663506180048,54,420.649211300537,0.12962962962962962,0.000840524152884603,0.9991594758471154,7.080643991608017,1,409.4238279336132,0.6328305001370609,1,37,411.0757382893935,54,410.44154759543017,0.6851851851851852,0.23944688891969956,0.7605531110803004,1.1557143122209195,1,344.5967891039327,0.5133617459796369,1,4,346.1151886652224,22,345.6006638603285,0.18181818181818182,0.07159416978547484,0.9284058302145252,2.562455311158459
78,1,348.566335842479,0.6820850991643965,1,46,350.2512938240543,40,349.5680567272939,1.15,2.1743716601685392e-06,0.9999978256283398,13.038768652663434,0,424.6676626149565,2.3333400492556393,0,95,428.0036807814613,16,425.66915713017806,5.9375,0.9970838599078657,0.002916140092134285,-5.8345740231067404,1,413.57662362093106,0.7656448022462428,1,74,415.34529498405755,60,414.578452357091,1.2333333333333334,0.29648104510358575,0.7035189548964143,0.8641115323264786,0,348.61650184728205,0.5152031243778765,1,55,350.15106808627024,60,349.63478091498837,0.9166666666666666,0.0008284680999537386,0.9991715319000463,7.0951034137447095
79,1,352.7527405368164,0.7318378700874746,1,98,354.487633807119,73,353.7544092736207,1.3424657534246576,2.9321700623086144e-10,0.999999999706783,21.95010814515325,1,430.5046609272249,2.833394172601402,1,53,434.3413775614463,40,431.50679741613567,1.325,0.2244660947709991,0.7755339052290009,1.2398270318788327,0,417.84576826682314,1.3328651865012944,1,62,420.18153398949653,16,418.84743502829224,3.875,0.30611761392427117,0.6938823860757288,0.8183330862964181,1,352.6527403788641,0.682064161170274,1,88,354.35388874122873,96,353.67049164511263,0.9166666666666666,1.1947421734936903e-05,0.9999880525782651,11.334983109770562
80,1,363.9947215928696,0.6153344423510134,1,72,365.62862389255315,51,365.0121141439304,1.411764705882353,1.564271299159259e-07,0.9999998435728701,15.670675402515773,0,443.84838475473225,1.8324088910594583,1,78,446.6998114772141,65,444.8661585394293,1.2,0.04197034633690977,0.9580296536630902,3.12791540188846,1,429.68872212059796,0.9637681846506894,1,17,431.67250447999686,82,430.7075973348692,0.2073170731707317,0.19503661699934471,0.8049633830006553,1.4176094690090875,0,363.86041949130595,0.7324743131175637,1,54,365.61188398161903,80,364.8781146593392,0.675,8.420562292887901e-05,0.9999157943770711,9.382164649149281
81,0,368.1303428020328,0.19775795098394156,1,60,369.3479359652847,61,369.14902285672724,0.9836065573770492,3.553418448376533e-09,0.9999999964465816,19.4553557500334,1,449.20088604232296,1.7163795363157988,0,41,451.9366010390222,7,450.2189715304412,5.857142857142857,0.9491492039798337,0.05085079602016626,-2.9266702319172513,1,434.1732618114911,0.5818411889486015,1,87,435.7584855109453,89,435.1753508928232,0.9775280898876404,0.29913795440576785,0.7008620455942322,0.8514062181256793,0,368.1149014560506,0.5323096518404782,1,43,369.6645155604929,7,369.13102270197123,6.142857142857143,0.272388157578906,0.727611842421094,0.9825396235659314
82,0,371.84882880281657,0.3650397271849215,1,62,373.2166327703744,17,372.85049595916644,3.6470588235294117,0.008267458409096928,0.9917325415909031,4.787126320389724,1,454.437619111035,1.9324513203464448,0,62,457.37327832495794,43,455.4395319954492,1.441860465116279,0.2712976308107029,0.7287023691892971,0.9880488890275947,1,438.259424965363,0.4319898895919323,1,19,439.71058122906834,37,439.2774851694703,0.5135135135135135,0.22259965921877667,0.7774003407812233,1.250580548850912,1,372.1654597558081,0.48195836367085576,1,56,373.65030601387843,46,373.16726636886597,1.2173913043478262,0.004089550201988201,0.9959104497980118,5.495222354758113
83,0,375.7179815080017,0.7321788077242672,1,35,377.46933498606086,62,376.7360654156655,0.5645161290322581,9.605585216121426e-10,0.9999999990394415,20.76350620633626,0,459.8744639027864,2.200039032381028,0,78,463.0772841623984,34,460.87619387358427,2.2941176470588234,0.8435368018712308,0.15646319812876924,-1.6847827043941788,1,442.21173994243145,0.5660980162210763,1,4,443.7807120257057,22,443.21337549434975,0.18181818181818182,0.20968013431984167,0.7903198656801583,1.326854557170548,0,376.1518167266622,0.6655486444942653,1,60,377.8368714977987,61,377.1699484367855,0.9836065573770492,0.0007259304109379361,0.9992740695890621,7.227330206410206
84,0,379.97104520443827,0.7483928925357759,1,60,381.7390252109617,40,380.9896213579923,1.5,3.7569601923914675e-06,0.9999962430398076,12.491896630045177,0,465.5784377399832,1.4330249489285052,1,96,468.0305105452426,89,466.596420512069,1.0786516853932584,0.0044127750498157425,0.9955872249501843,5.41882898435008,0,446.28140377718955,0.5821220767684281,1,60,447.866876760032,70,447.28351063653827,0.8571428571428571,0.2659246179413931,0.7340753820586069,1.0153988462724657,1,380.3376995450817,0.5487220576032996,1,54,381.9061821484938,31,381.3563736737706,1.7419354838709677,0.02252838444926475,0.9774716155507353,3.7701932084110865
85,1,384.2403399734758,0.49840711476281285,1,53,385.7419135007076,40,385.2423784872517,1.325,2.858151417983734e-06,0.999997141848582,12.76533264130432,1,470.5315811596811,1.0658230539411306,1,54,472.60031857714057,78,471.53328268649057,0.6923076923076923,0.0008584368537141174,0.9991415631462859,7.0595386290163935,0,450.3673729561269,0.21526704542338848,1,14,451.5859561418183,57,451.36950351903215,0.24561403508771928,0.2043311882371004,0.7956688117628996,1.3594408844515486,0,384.4068426899612,0.8477178919129074,1,38,386.2584673380479,43,385.4096093005501,0.8837209302325582,0.006132972262638758,0.9938670277373612,5.087923918803832
86,1,388.2430267818272,0.4654286252334714,1,97,389.7112844372168,61,389.24471764219925,1.5901639344262295,1.5077667558927033e-08,0.9999999849223324,18.010051142410436,0,475.1013832660392,2.032734737265855,0,40,478.13870149850845,15,476.105478071142,2.6666666666666665,0.8327103097677159,0.1672896902322841,-1.6049588326355801,1,454.0865080417134,0.5155491977930069,1,41,455.60524340486154,7,455.088556827046,5.857142857142857,0.27584510515232263,0.7241548948476774,0.9651658177010717,0,388.7601443710737,0.5846425648778677,1,41,390.3628609669395,22,389.77778502041474,1.8636363636363635,0.06336325795045128,0.9366367420495487,2.6934113593027775
87,0,392.212408780586,0.46555109415203333,1,54,393.6806443124078,80,393.2139684804715,0.675,5.160316618457728e-12,0.9999999999948397,25.99002317814615,1,480.64013754436746,1.3999919407069683,1,15,483.05757971527055,19,481.6564891105518,0.7894736842105263,0.26714539769649004,0.73285460230351,1.0091542516191976,1,458.10650443891063,0.6819808031432331,1,53,459.80796806002036,55,459.1247819266282,0.9636363636363636,0.2641918315134807,0.7358081684865193,1.0242939703168539,0,392.86375380447134,0.41431328980252147,1,60,394.2811422473751,70,393.86557187419385,0.8571428571428571,0.0002590836466802582,0.9997409163533197,8.258100471035059
88,1,396.18155650794506,1.0655200420878828,1,50,398.2499506175518,62,397.1832975409925,0.8064516129032258,1.725805498509203e-09,0.9999999982741945,20.17757193806964,0,485.5582959605381,1.6165741430595517,1,71,488.19397840462625,69,486.576257399749,1.0289855072463767,0.013295011021501324,0.9867049889784987,4.306982244386044,0,462.30885062599555,0.6487656719982624,1,68,463.9775332878344,63,463.32752831000835,1.0793650793650793,0.2840097511223726,0.7159902488776274,0.9246579754722053,1,396.78204417089,0.6322339582256973,1,14,398.41652365447953,8,397.78361927811056,1.75,0.2700382684961963,0.7299617315038037,0.9944284260448035
89,1,400.7517315512523,0.7843082640320063,1,87,402.5545381424017,89,401.7697194595821,0.9775280898876404,9.472422846101836e-13,0.9999999999990528,27.685221490084913,1,490.6951588462107,2.2503599002957344,0,32,493.9648083797656,16,491.7132127294317,2.0,0.6925168278669548,0.3074831721330452,-0.8119121769566041,0,466.4782937797718,0.7989831925369799,1,62,468.280100076925,17,467.47998819546774,3.6470588235294117,0.30540917146548485,0.6945908285345151,0.8216705129428481,0,400.91776533052325,0.7157000317238271,1,15,402.6360846157186,42,401.91926774708554,0.35714285714285715,0.007450551489623591,0.9925494485103764,4.891988778392413
90,0,405.05471394443884,0.7139913938008249,1,58,406.77241377392784,58,406.0573968021199,1.0,8.886784974571071e-09,0.999999991113215,18.538700489098304,0,496.4660026486963,2.2179542486555874,0,51,499.70208663214,7,497.4834552491084,7.285714285714286,0.9764297652006274,0.023570234799372595,-3.723918144004574,0,470.78170836903155,0.7324739182367921,1,28,472.533518537879,41,471.7999084247276,0.6829268292682927,0.23359372771958997,0.76640627228041,1.1881290106269795,1,405.1371631314978,0.3987818695604801,1,17,406.53912287019193,82,406.13922574417666,0.2073170731707317,7.633759611613833e-05,0.9999236624038839,9.480268659811179
91,1,409.2734725368209,0.6155841210857034,1,52,410.8921630210243,68,410.27536961901933,0.7647058823529411,2.5519142354824e-10,0.9999999997448086,22.089007171553337,0,502.2046296382323,1.5317573565989733,0,14,504.75484265526757,7,503.22208816511557,2.0,0.6844073257470187,0.31559267425298126,-0.7741008692814781,1,475.0343821407296,0.6319767734967172,1,98,476.68592785531655,73,476.05269360356033,1.3424657534246576,0.33062460444569386,0.6693753955543061,0.7053614259043279,1,409.04025234887376,0.5995687516406178,1,94,410.6589507344179,46,410.0580095415935,2.0434782608695654,0.0035767492683158597,0.9964232507316841,5.629717755554981
92,0,413.3932281048037,0.6487897709012032,1,51,415.0449365847744,7,414.3949553105049,7.285714285714286,0.13000907184654387,0.8699909281534561,1.9008785527286585,0,507.25644383672625,1.1831968002952635,1,15,509.45829224726185,42,508.27402167161927,0.35714285714285715,0.010152149888489115,0.9898478501115109,4.579865749828891,1,479.1869170879945,0.6486977217718959,1,54,480.8387515922077,31,480.18886276194826,1.7419354838709677,0.28175489218002636,0.7182451078199736,0.9357733702681204,1,413.1600422873162,1.8824397847056389,1,62,416.0617559030652,43,414.17818150343373,1.441860465116279,0.005636338283455111,0.9943636617165449,5.172868382465033
93,1,417.5459305578843,0.699032022152096,1,15,419.26444302732125,42,418.56429495848715,0.35714285714285715,3.3374571073441217e-07,0.9999996662542893,14.912886145300869,1,511.9594185655005,1.5157095920294523,1,46,514.4778548674658,40,512.9610233022831,1.15,0.14210681929794966,0.8578931807020503,1.7979005703399589,1,483.3398139104247,0.5994838131591678,1,32,484.9582950123586,16,484.3576362878084,2.0,0.2552122165925952,0.7447877834074048,1.0710039023285982,1,418.5630410355516,0.9155573360621929,1,15,420.48139224154875,19,419.5646734270267,0.7894736842105263,0.09467893589533793,0.9053210641046621,2.25779810212811
94,0,421.76511107524857,0.48192517878487706,1,87,423.25005333311856,85,422.7669271696359,1.0235294117647058,3.568256801145253e-12,0.9999999999964317,26.35894393038203,0,516.9793758513406,1.231989178340882,1,22,519.2138187526725,31,517.9809094774537,0.7096774193548387,0.08996514157504254,0.9100348584249575,2.3140606252674787,0,487.45879397401586,0.49892938509583473,1,22,488.96082814224064,31,488.4607289819978,0.7096774193548387,0.23053568579705697,0.769464314202943,1.2052889073691129,1,422.9830025094561,0.6321438844315708,1,43,424.6344779036008,97,424.0012025651522,0.44329896907216493,1.249409076797825e-05,0.999987505909232,11.290242269825042
95,1,425.7515478483401,0.6319234403781593,1,41,427.38614782551304,7,426.75310754822567,5.857142857142857,0.09182925927789265,0.9081707407221074,2.2915014260061044,0,521.7153887241147,1.6172240185551345,0,53,524.3353536743671,15,522.7169875348918,3.533333333333333,0.9334777791140203,0.06652222088597964,-2.6413811183491003,0,491.46176443621516,0.7155080321244895,1,86,493.1798423388973,59,492.46320443274453,1.4576271186440677,0.3187101481246445,0.6812898518753555,0.7597057792671761,1,427.13521390175447,0.5320050599984825,1,45,428.6702320901677,40,428.1370714777149,1.125,0.008416498299222419,0.9915835017007776,4.76910929916331
96,0,429.8875186862424,0.8324073106050491,1,71,431.72282890370116,64,430.88913843547925,1.109375,2.019430178634707e-09,0.9999999979805698,20.020450453093474,0,526.8360474011861,1.2996749435551465,1,7,529.1547220037319,54,527.853816840332,0.12962962962962962,0.000840524152884603,0.9991594758471154,7.080643991608017,1,495.6814557672478,0.3489097901619971,1,66,497.03312584757805,59,496.683017837815,1.11864406779661,0.2832995829959998,0.7167004170040002,0.9281529899552965,0,431.1712240879424,0.4651240333914757,1,45,432.63948687911034,92,432.1732104537077,0.4891304347826087,2.1995056741830332e-05,0.9999780049432582,10.724670828107866
97,1,434.2239180863835,0.4990668660029769,1,58,435.7422109814361,58,435.24200159916654,1.0,8.886784974571071e-09,0.999999991113215,18.538700489098304,1,531.6557665443979,2.0505342013202608,1,87,534.7088678507134,89,532.6572563187219,0.9775280898876404,0.0021581313042501327,0.9978418686957499,6.136352105228658,1,499.5347606088035,1.065413375850767,1,46,501.61876831110567,36,500.5522467899136,1.2777777777777777,0.2650586870284568,0.7349413129715432,1.0198393877755196,0,435.14091265341267,0.39826315455138683,1,56,436.5421174308285,59,436.14275166159496,0.9491525423728814,0.0009256273880249299,0.9990743726119751,6.984112736994551
98,1,438.2433914230205,0.4822795484215021,1,17,439.7283443477936,82,439.2448914689012,0.2073170731707317,6.266098750984384e-13,0.9999999999993734,28.09845225670377,1,537.2105717477389,0.9985698801465333,1,43,539.2128437422216,93,538.2136038392782,0.46236559139784944,3.482165673718285e-05,0.9999651783432628,10.265236222447642,1,504.12036870233715,0.8490050002001226,1,94,505.98870086623356,46,505.13853043690324,2.0434782608695654,0.34322836706367865,0.6567716329363213,0.6489403485883345,1,439.04360522981733,0.4493350340053439,1,46,440.51177241653204,40,440.0613829656504,1.15,0.008387011397006483,0.9916129886029935,4.772648651815866
99,1,442.228732297197,0.7988488716073334,1,24,444.0309063959867,69,443.23085219366476,0.34782608695652173,6.13549211436748e-11,0.9999999999386451,23.514345733686437,1,541.7144117387943,0.8300353661179543,1,55,543.5476830475964,95,542.7163696601056,0.5789473684210527,6.644727184246246e-05,0.9999335527281575,9.619035379962666,0,508.4924642154947,0.4993627672083676,1,95,510.0084787947126,16,509.5078154876828,5.9375,0.3680956560990586,0.6319043439009414,0.5403951886610199,0,443.012857648544,0.4651244282722473,1,45,444.4807380209677,60,444.0144434226677,0.75,0.0008582899781195419,0.9991417100218805,7.0597098872191015
