,self_acceptUp,self_cue_times,self_decision_times,self_decisions,self_punishment_values,self_response_times,self_reward_values,self_trial_times,self_punishment_reward_ratio,self_prob_reject,self_prob_accept,self_SV,harm_other_acceptUp,harm_other_cue_times,harm_other_decision_times,harm_other_decisions,harm_other_punishment_values,harm_other_response_times,harm_other_reward_values,harm_other_trial_times,harm_other_punishment_reward_ratio,harm_other_prob_reject,harm_other_prob_accept,harm_other_SV,harm_self_acceptUp,harm_self_cue_times,harm_self_decision_times,harm_self_decisions,harm_self_punishment_values,harm_self_response_times,harm_self_reward_values,harm_self_trial_times,harm_self_punishment_reward_ratio,harm_self_prob_reject,harm_self_prob_accept,harm_self_SV,other_acceptUp,other_cue_times,other_decision_times,other_decisions,other_punishment_values,other_response_times,other_reward_values,other_trial_times,other_punishment_reward_ratio,other_prob_reject,other_prob_accept,other_SV
0,0,0.0036317938356660306,2.0743038238724694,1,7,3.103592840838246,54,1.0272445773589425,0.12962962962962962,0.0,1.0,inf,0,0.003587151993997395,1.5598449939861894,0,86,2.585996833164245,59,1.0246901143109426,1.4576271186440677,0.48353620402057074,0.5164637959794293,0.0658790000539531,0,0.0028499685577116907,2.4241593896294944,1,60,3.454375219240319,61,1.028412772109732,0.9836065573770492,0.9889643231510648,0.011035676848935262,-4.495524882925559,1,0.0039754967438057065,1.707935902173631,0,56,2.735641120467335,46,1.025629963958636,1.2173913043478262,0.5155564872803831,0.48444351271961694,-0.0622460393875128
1,0,5.604985035082791,1.7159295622259378,0,51,8.34058151365025,7,6.622565635363571,7.285714285714286,0.9999999765456807,2.345431930624748e-08,-17.568211143397026,1,5.086871892854106,1.1824615921941586,1,54,7.2890086976694874,31,6.105311750376131,1.7419354838709677,0.18509945931539007,0.8149005406846099,1.4821727712894508,0,5.954874576069415,0.8157515478669666,0,77,7.774440830922686,72,6.9568242011009715,1.0694444444444444,0.9982240711546494,0.0017759288453505818,-6.331654192093096,0,5.23587302112719,1.7828631319571286,1,87,8.038947463268414,76,6.254155249393079,1.144736842105263,0.6950150062732081,0.30498499372679194,-0.8236708625904613
2,0,10.841588128590956,0.9895470864721574,1,87,12.910317249596119,76,11.918994759907946,1.144736842105263,6.661338147750939e-16,0.9999999999999993,34.945041100449046,1,9.79022469476331,0.7815811597392894,1,66,11.625129579915665,59,10.842253806011286,1.11864406779661,0.0517787305703008,0.9482212694296992,2.907608423398906,0,10.27446374448482,2.5502501525334083,1,12,13.844815380172804,3,11.292495504196268,4.0,0.4168736772796796,0.5831263227203204,0.33562059620714646,0,10.539449980598874,2.3165317929233424,1,59,13.876038614835124,65,11.5574410490226,0.9076923076923077,0.2170863215275618,0.7829136784724382,1.2827273758071909
3,0,15.410364261828363,1.3155054249218665,1,15,17.730026911536697,42,16.412348652200308,0.35714285714285715,0.0,1.0,inf,1,14.126611848012544,0.6827215421944857,1,15,15.828343715518713,19,15.144453583518043,0.7894736842105263,0.003395463608002025,0.996604536391998,5.681913729905046,1,16.344974194595125,1.2155337113072164,0,15,18.564366859733127,19,17.346865745668765,0.7894736842105263,0.4511761212039862,0.5488238787960138,0.1959198104709044,0,16.376809378445614,1.449143034114968,0,60,18.845506736601237,40,17.394807162927464,1.5,0.7370039138678051,0.262996086132195,-1.0304540522746013
4,1,20.230653873004485,1.7654832226107828,1,53,23.017372798291035,40,21.249505778949242,1.325,1.7473162017278554e-07,0.9999998252683798,15.56001446447057,1,18.32977304549422,0.9989147679880261,0,94,20.34839344577631,46,19.348490630742162,2.0434782608695654,0.925824226637162,0.07417577336283802,-2.524246804266654,0,21.065063351939898,1.1155943927005865,0,53,23.184474031848367,57,22.06708408787381,0.9298245614035088,0.9766271678379679,0.023372832162032148,-3.732530640895736,0,21.34741646045586,1.4310808547306806,1,68,23.78216703486396,63,22.349383073102217,1.0793650793650793,0.4705863090252307,0.5294136909747693,0.11779076748742423
5,1,25.517475119035225,1.3323251382098533,1,75,27.86899191548582,70,26.535671224060934,1.0714285714285714,6.661338147750939e-16,0.9999999999999993,34.945041100449046,1,22.849678183498327,0.5640247371629812,1,54,24.4332619853667,78,23.868101843516342,0.6923076923076923,0.0011849183120798967,0.9988150816879201,6.736895820842009,1,25.684911759220995,1.5499179063481279,0,58,28.25444680423243,6,26.702702926879283,9.666666666666666,0.9931974724194111,0.006802527580588822,-4.983635262599589,0,26.28330322972033,0.7819564674864523,1,45,28.085269921342842,92,27.301499729801435,0.4891304347826087,0.005484910891443762,0.9945150891085562,5.200254423003898
6,1,30.37064643006306,1.1161502432078123,1,43,32.50656749057816,93,31.388513449463062,0.46236559139784944,0.0,1.0,inf,1,26.9345641057007,0.5812067210790701,1,15,28.51964518800378,56,27.937164790928364,0.26785714285714285,5.4426193252132826e-05,0.9999455738067479,9.818610598703433,0,30.754606803879142,1.3826147967483848,1,9,33.14146692393115,7,31.756631095369812,1.2857142857142858,0.3235430065054694,0.6764569934945306,0.7375368271305432,0,30.58599920355482,0.6828183321049437,1,37,32.28901896922616,52,31.603934173414018,0.7115384615384616,0.07217524428391087,0.9278247557160891,2.553745763981453
7,0,35.00711978558684,1.4162091863108799,1,12,37.44323885056656,23,36.02543480391614,0.5217391304347826,3.2695874896404575e-09,0.9999999967304125,19.538602006682282,1,31.02065654360922,0.6819432724150829,1,55,32.70592780818697,95,32.02275471150642,0.5789473684210527,0.00020435370212168458,0.9997956462978783,8.495453856959946,0,35.64161665196298,1.5999156150501221,0,37,38.26119444257347,52,36.659600214276,0.7115384615384616,0.8737166293835226,0.12628337061647743,-1.9342277454673737,1,34.7891256356379,1.182640554732643,1,28,36.99180327868089,82,35.80719808663707,0.34146341463414637,0.002052973328927288,0.9979470266710727,6.186411048730146
8,1,39.9439203304355,0.8660605644108728,1,15,41.82989393407479,19,40.961696880927775,0.7894736842105263,9.996349507046531e-07,0.9999990003650493,13.815874674270885,1,35.2069826204679,0.6154387387214229,1,17,36.84225617634365,82,36.225564304797444,0.2073170731707317,3.951917403322014e-06,0.9999960480825967,12.441305726340975,0,40.761609651497565,1.2990562787745148,0,68,43.07992790930439,63,41.779517757182475,1.0793650793650793,0.9955092367096608,0.0044907632903391555,-5.401231716769419,0,39.49191784631694,1.112354894168675,1,14,41.62818181962939,57,40.513789992022794,0.24561403508771928,0.0039858399314290915,0.9960141600685709,5.521013411130252
9,0,44.33007171144709,1.148574857681524,0,43,46.498756743676495,7,45.34858307498507,6.142857142857143,0.9999984168485228,1.5831514772105419e-06,-13.356091508528221,1,39.34324580366956,0.565132487565279,1,15,40.911487814737484,42,40.34500263899099,0.35714285714285715,0.00026031079112742717,0.9997396892088726,8.253373945643355,1,45.58149946114281,1.550030893762596,0,82,48.150985913700424,40,46.59930959175108,2.05,0.9993472439683361,0.0006527560316638782,-7.333654140869153,1,44.128642460505944,1.8491736908908933,1,46,46.997664005553816,40,45.146850417368114,1.15,0.3757850477267767,0.6242149522732233,0.507477485508485
10,0,48.999805630068295,1.5664820152451284,1,60,51.58632394351298,40,50.01818978402298,1.5,6.966366666749657e-06,0.9999930336333333,11.874409784386934,0,43.41266114526661,1.1155390841304325,1,78,45.53132002451457,65,44.41432277095737,1.2,0.13315036488413445,0.8668496351158655,1.8733864778454525,1,50.6514109991258,1.8312110668048263,0,16,53.48744970874395,10,51.654603090311866,1.6,0.5096408517513052,0.49035914824869475,-0.03856818715863708,1,49.50101214577444,0.8826017597457394,1,15,51.40103490126785,19,50.51638751674909,0.7894736842105263,0.11283536025511565,0.8871646397448844,2.062100811849314
11,0,54.08647999254754,0.9827192508382723,0,62,56.088885122619104,16,55.10430671571521,3.875,0.9999991992490376,8.007509624284737e-07,-14.03771504579778,1,48.032327034452464,0.832333434431348,1,88,49.86773364682449,96,49.034090190776624,0.9166666666666666,0.019485574668685834,0.9805144253313142,3.9184029265161624,1,55.98845434834948,1.7155459581990726,0,43,58.72431196208345,97,57.00693134160247,0.44329896907216493,0.8852576220703626,0.11474237792963739,-2.0431892775682083,0,53.90167450468289,1.0320082204416394,1,24,55.95424366404768,90,54.92000295507023,0.26666666666666666,0.0006545646664715132,0.9993454353335285,7.330885395648093
12,0,58.58914586273022,0.7655981852440163,1,35,60.37495417293394,62,59.60740478243679,0.5645161290322581,0.0,1.0,inf,0,52.36845897848252,1.8658389353076927,1,40,55.23752437526127,15,53.3704911711975,2.6666666666666665,0.1567592284617103,0.8432407715382897,1.6825414784215307,0,61.22528776223771,1.9491126144421287,0,38,64.19471045205137,43,62.243768706102856,0.8837209302325582,0.8974047860791488,0.10259521392085119,-2.1687157430969153,0,58.455930968688335,2.716486202843953,0,55,62.19146423751954,60,59.472953348071314,0.9166666666666666,0.21730000714724218,0.7826999928527578,1.2814705515257587
13,1,62.875509233330376,1.8641243714373559,1,87,65.76216905756155,89,63.89629101124592,0.9775280898876404,0.0,1.0,inf,0,57.738757359969895,1.5980805576546118,0,62,60.34140600555111,16,58.74204268550966,3.875,0.791098273964375,0.2089017260356249,-1.331558269182329,0,66.6955444253399,0.947837358165998,0,45,68.66506034944905,42,67.71507149020908,1.0714285714285714,0.9524503633627343,0.047549636637265705,-2.997263846423527,1,64.69201811274979,1.4157351133180782,1,12,67.11162363667972,9,65.69395825627726,1.3333333333333333,0.18089049984246253,0.8191095001575375,1.510325899792488
14,1,68.26281814242247,1.33289363066433,1,33,70.6149579497287,25,69.28051489061909,1.32,2.610443509865057e-05,0.9999738955649013,10.553379226144422,0,62.841947633889504,2.8995589541154914,1,59,66.74464811146026,65,63.84412402380258,0.9076923076923077,0.010221079197722194,0.9897789208022778,4.573029430023163,1,71.16511249751784,0.765346136467997,0,46,72.95112110348418,40,72.18406790937297,1.15,0.9585119437325921,0.041488056267407925,-3.1399764382375634,1,69.61188635206781,1.5490412664948963,1,42,72.1647095354856,39,70.61389484116808,1.0769230769230769,0.29759987668520593,0.7024001233147941,0.8587533292883323
15,0,73.11619488504948,1.1325365747325122,0,53,75.26828894432401,15,74.1340603241697,3.533333333333333,0.9999675207312927,3.247926870729878e-05,-10.33487607829747,0,69.24655585997971,1.3989394988166168,1,28,71.64872498076875,18,70.24851338623557,1.5555555555555556,0.02359167459651912,0.9764083254034809,3.7229869866552656,1,75.45180653396528,1.5497970177675597,1,6,78.0211989620584,8,76.46942150458926,0.75,0.2497172718101749,0.7502827281898251,1.1001207412758676,1,74.66563318762928,1.0995051468489692,0,97,76.7847693003132,61,75.68352904648054,1.5901639344262295,0.9624638086856455,0.037536191314354504,-3.244190894808181
16,0,77.76918968290556,1.049351784226019,1,24,79.83806576655479,90,78.78703813441098,0.26666666666666666,0.0,1.0,inf,0,74.14956606522901,0.9655554397031665,1,12,76.11837957124226,23,75.15149988781195,0.5217391304347826,0.0014204166397971951,0.9985795833602028,6.555383615709083,1,80.52150157862343,1.6493776212446392,0,15,83.19104310270632,56,81.53976405388676,0.26785714285714285,0.3360340477375011,0.6639659522624989,0.6810183840671395,1,79.28527300280984,0.9319096922990866,1,43,81.22091838991037,97,80.28702707274351,0.44329896907216493,0.002841366517667865,0.9971586334823321,5.860624763478102
17,1,82.33875712292502,1.0988007534760982,1,12,84.45707703998778,9,83.35698404267896,1.3333333333333333,0.006448340033582078,0.9935516599664179,5.037463320042564,1,78.61968801257899,1.1157875773496926,1,42,80.75502082757885,39,79.63796984578948,1.0769230769230769,0.016599704362314616,0.9834002956376854,4.081631369901118,1,85.69122641091235,0.699343329994008,0,33,87.41061354521662,25,86.70939565176377,1.32,0.8608364182069732,0.13916358179302674,-1.8222544072887439,1,83.7215508822701,0.7655491976765916,1,25,85.50763494486455,37,84.73977069091052,0.6756756756756757,0.07242814534244146,0.9275718546575585,2.549975291137156
18,1,86.95866478933021,1.0987651980249211,1,74,89.0608843988739,60,87.96053935278906,1.2333333333333334,1.1155298906828648e-11,0.9999999999888447,25.219106492620615,0,83.25564423354808,1.3656354789854959,1,58,85.6410485545639,58,84.27412952302257,1.0,0.019218099862983284,0.9807819001370167,3.9324975746612973,0,89.91080238425639,1.278911733883433,0,28,92.19690066907788,18,90.91596661892254,1.5555555555555556,0.7911009689492637,0.20889903105073623,-1.3315745766276386,0,88.00790556153515,1.399202214262914,0,87,90.42752846807707,85,89.02602976548951,1.0235294117647058,0.5076175004271068,0.4923824995728932,-0.030472359452581338
19,0,91.56158918736037,2.2164143018308096,0,12,94.79799317015568,3,92.57978173682932,4.0,0.7644638638172443,0.23553613618275565,-1.1773104103199847,0,88.14253793371608,1.3992255228222348,1,35,90.54471653595101,62,89.14425842347555,0.5645161290322581,0.00047691422178408605,0.9995230857782159,7.647696883810375,0,94.69742412457708,1.0664263117359951,0,80,96.78364535234869,60,95.71552501997212,1.3333333333333333,0.9989293911604871,0.0010706088395129557,-6.838456601091354,1,92.92776036879513,0.848544754087925,1,10,94.79654171684524,44,93.94621286826441,0.22727272727272727,0.008044486981568122,0.9919555130184319,4.814691250726259
20,1,104.32151904032798,1.2321527336607687,1,40,106.57296693813987,93,105.3389447767986,0.43010752688172044,0.0,1.0,inf,0,100.05176165507874,1.4825588561361656,0,51,102.55244787567062,7,101.06861415831372,7.285714285714286,0.6845649325301912,0.31543506746980876,-0.7748306490228849,1,106.30666159407701,0.8663264403003268,0,72,108.19191737222718,51,107.32393088645767,1.411764705882353,0.9975871362344624,0.0024128637655376458,-6.024525173063,1,104.30332254030509,1.1489256716449745,1,43,106.47140352457063,93,105.32023430266418,0.46236559139784944,0.0040374671160090525,0.995962532883991,5.5080920954167985
21,0,109.0734975048108,0.8154418201884255,1,6,110.90907912910916,26,110.09187257231679,0.23076923076923078,6.2085891983088004e-12,0.9999999999937914,25.805087428023654,0,105.05400836578337,0.6984133568475954,1,22,106.77168765227543,31,106.07208950811764,0.7096774193548387,0.0024022607653290118,0.997597739234671,6.028939848641354,0,110.6921524333884,2.483785519900266,0,22,114.19550373411039,31,111.70956908346852,0.7096774193548387,0.6135331621361952,0.3864668378638048,-0.462188253484057,0,108.97153191932011,2.049589610833209,1,28,112.0247786079417,18,109.97342268028297,1.5555555555555556,0.3668188660083733,0.6331811339916267,0.5458883597496986
22,0,113.41265245393151,1.3660321200150065,1,96,115.79543870710768,89,114.42763948015636,1.0786516853932584,0.0,1.0,inf,0,109.27311500691576,0.5986514204414561,1,60,110.89143413386773,70,110.29152128426358,0.8571428571428571,0.0067599556011258555,0.9932400443988741,4.989956049233843,0,116.69587825174676,0.8326617300044745,0,86,118.54806981194997,59,117.71358408627566,1.4576271186440677,0.9994744364060418,0.0005255635939582213,-7.550513657122644,1,114.52529929805314,1.282608712790534,0,45,116.82808969146572,40,115.54368226684164,1.125,0.35038900412417207,0.6496109958758279,0.6173297382072771
23,0,118.29624660644913,1.0486861068056896,1,45,120.3485301368055,42,119.29806467617163,1.0714285714285714,3.2613001188508406e-10,0.99999999967387,21.84372500427562,0,113.39240519329906,0.6318266505259089,1,7,115.02751361380797,54,114.39446108968696,0.12962962962962962,2.1841057822102883e-05,0.9999781589421779,10.731697131886198,0,121.04835702117998,1.7822002199827693,0,35,123.83468839182751,62,122.05055671965238,0.5645161290322581,0.8278032701444106,0.17219672985558943,-1.5701379282831531,0,119.32870085048489,1.866069255687762,0,60,122.21477242920082,70,120.3469818935846,0.8571428571428571,0.16609757833147165,0.8339024216685283,1.6135409581850002
24,1,122.8493076164741,1.0490890688379295,1,58,124.91807387321023,58,123.86721927771578,1.0,1.9539925233402755e-14,0.9999999999999805,31.56631657463893,0,117.52852971013635,1.466502400347963,1,60,119.99797057273099,40,118.5302004222176,1.5,0.16302679173460688,0.8369732082653931,1.6358775069662452,0,126.33539436548017,0.8494241593871266,0,87,128.2047647491563,76,127.35333605133928,1.144736842105263,0.9994154722342027,0.000584527765797367,-7.444121576008887,0,124.71567316778237,1.9664739560103044,0,12,127.70197166939033,3,125.73378631006926,4.0,0.27258891886361436,0.7274110811363856,0.9815268977005681
25,1,127.41900503146462,0.8482919151429087,1,24,129.2707248891238,69,128.42077687912388,0.34782608695652173,0.0,1.0,inf,0,122.4989424222731,0.5656460666214116,1,7,124.08390893688193,54,123.51693467592122,0.12962962962962962,2.1841057822102883e-05,0.9999781589421779,10.731697131886198,0,130.7056884013,0.6975138034322299,0,62,132.40651874005562,17,131.70773323596222,3.6470588235294117,0.9950597210383577,0.004940278961642265,-5.305380956927942,0,130.20273058116436,2.6164512795512564,0,80,133.83931929443497,60,131.22092036524555,1.3333333333333333,0.8122711785838159,0.18772882141618408,-1.4648357659440396
26,1,131.77157940564211,0.84931235719705,1,43,133.62427782884333,97,132.7731797968736,0.44329896907216493,0.0,1.0,inf,0,126.5845208860701,0.982541078410577,0,62,128.5704274873715,17,127.58650369616225,3.6470588235294117,0.7720205457017271,0.2279794542982729,-1.219755651106742,1,134.90762293501757,1.062357580580283,0,42,136.97710464685224,67,135.91283023130381,0.6268656716417911,0.910521684022842,0.08947831597715808,-2.320021398053618,0,136.33981509576552,0.6987681214231998,1,22,138.04176898743026,31,137.34166319016367,0.7096774193548387,0.08700752358547759,0.9129924764145224,2.3507330471416092
27,0,136.1249075557571,0.9662001788965426,1,87,138.11068102158606,85,137.14278682204895,1.0235294117647058,0.0,1.0,inf,1,131.07092012820067,0.7490641009644605,1,4,132.82323083875235,22,132.07287686428754,0.18181818181818182,0.000510161580084767,0.9994898384199152,7.580272766971531,1,139.47771343553904,1.5834123454988003,0,54,142.08062598173274,31,140.4954828748596,1.7419354838709677,0.985078258340495,0.014921741659504974,-4.189901766934358,1,140.54276928136824,0.9484678752487525,1,26,142.51146110863192,84,141.56133674352895,0.30952380952380953,0.0013826332054319712,0.998617366794568,6.582381888158371
28,0,140.61116378585575,1.6662799021578394,0,40,143.29722517199116,15,141.62927021208452,2.6666666666666665,0.97040711335793,0.029592886642070056,-3.4901816716356646,1,135.32375745481113,0.6152147392276675,1,43,136.95905234396923,93,136.34236600325676,0.46236559139784944,4.64593539956093e-05,0.9999535406460044,9.976886274813841,1,144.5812470172532,1.5333869825699367,0,19,147.13423533609603,37,145.59882919781376,0.5135135135135135,0.5085117971200478,0.4914882028799522,-0.034050478041944804,0,145.0121137490496,1.5330203661578707,0,41,147.54865529207746,22,146.0139006090467,1.8636363636363635,0.6294034023756341,0.37059659762436586,-0.5296582572733163
29,0,145.8002430414199,0.7488835581461899,1,58,147.56719707528828,58,146.81620507763,1.0,1.9539925233402755e-14,0.9999999999999805,31.56631657463893,0,139.46004868729506,0.7488270645262673,1,28,141.22851935954532,41,140.4783862240729,0.6829268292682927,0.0018431263804515874,0.9981568736195484,6.294447202393748,1,149.63426575576887,0.9490059480303898,0,40,151.60294099053135,93,150.6527387984097,0.43010752688172044,0.8514677128246666,0.14853228717533337,-1.746159224719673,0,150.04917321680114,0.6983272336074151,1,53,151.75116305897245,57,151.0509948420804,0.9298245614035088,0.22499774556099106,0.7750022544390089,1.2367755558773823
30,0,150.0672448776313,1.8326842484530061,0,78,152.90361583337653,34,151.06901672529057,2.2941176470588234,0.9784929569636986,0.021507043036301333,-3.8176331244476907,0,143.72977881337283,1.38278230256401,1,77,146.13191435398767,72,144.74790815310553,1.0694444444444444,0.05742740696353055,0.9425725930364695,2.7980912755418093,0,154.10406849405263,2.1999193286173977,1,7,157.32367607223568,54,155.121869143215,0.12962962962962962,0.1698451347936002,0.8301548652063998,1.5867252179109992,0,154.25195989658823,0.7146582566201687,1,6,155.97049093415262,26,155.25408887921367,0.23076923076923078,0.024899246630324834,0.9751007533696752,3.6677032552456814
31,0,155.40436881926144,0.7321061164839193,1,71,157.1567071840982,69,156.42245193687268,1.0289855072463767,2.220446049250313e-16,0.9999999999999998,36.04365338911715,0,148.6326890682103,0.6992015030700713,1,55,150.33507713163272,60,149.63449726143153,0.9166666666666666,0.01012709326190675,0.9898729067380933,4.582362224314216,0,159.82438718166668,1.4824916958459653,0,45,162.32771201332798,92,160.84292224887758,0.4891304347826087,0.9122742537409226,0.08772574625907736,-2.3417252334556418,0,158.47174959781114,0.5825554586481303,1,45,160.07356545527,60,159.48945227189688,0.75,0.08471110238754542,0.9152888976124546,2.379993078513679
32,1,159.65727646672167,0.7987248227582313,1,19,161.45944621955277,37,160.65898352436488,0.5135135135135135,6.572520305780927e-14,0.9999999999999343,30.35329393479303,0,152.83592690742807,0.7825399722205475,1,60,154.63765735272318,61,153.85387372906553,0.9836065573770492,0.01827580263078732,0.9817241973692127,3.983732486553562,1,164.82746668055188,1.2822021952597424,0,52,167.11418560583843,68,165.82949215720873,0.7647058823529411,0.9698752715269529,0.030124728473047153,-3.47182109874748,1,162.57414698472712,1.3322923481464386,0,72,164.92677627236117,51,163.59247741044965,1.411764705882353,0.7988650966652311,0.20113490333476888,-1.379216247491584
33,1,163.9600285391789,0.7990799824474379,1,56,165.77927360963076,46,164.97809506428894,1.2173913043478262,1.6955759019054994e-09,0.9999999983044241,20.195243386989535,1,157.13872441189596,0.9663676846539602,1,53,159.12386222492205,55,158.15655706101097,0.9636363636363636,0.013287931230188565,0.9867120687698114,4.307522076270772,1,169.61464703688398,1.1989293062360957,0,37,171.83372681384208,54,170.63281351234764,0.6851851851851852,0.8707949891698438,0.1292050108301562,-1.9080062009486582,1,167.428921057377,1.5326260955189355,1,15,169.9802635529777,56,168.44591499242233,0.26785714285714285,0.004854281919030923,0.9951457180809691,5.3230279914161445
34,1,168.27914877037983,0.6312174667255022,1,37,169.91465383191826,54,169.281705998932,0.6851851851851852,0.0,1.0,inf,1,161.62497274077032,1.0822856320883147,1,45,163.72702207916882,40,162.64345368463546,1.125,0.02259495324938854,0.9774050467506115,3.767174574474963,0,174.33432296058163,0.7987086253124289,0,71,176.1527644773596,64,175.35235155984992,1.109375,0.9967878391851904,0.0032121608148095327,-5.737594086396026,1,172.48061515705194,1.666343506949488,1,58,175.15056359372102,58,173.48249525140272,1.0,0.3152587154752171,0.6847412845247829,0.7756474593987421
35,1,172.41539220052073,1.799548524490092,0,41,175.2349252703134,7,173.4335491945385,5.857142857142857,0.9999954621904378,4.537809562177931e-06,-12.303061599811018,1,166.22786790429382,0.932461197138764,0,41,168.17999957333086,7,167.24623191013234,5.857142857142857,0.3438838079291999,0.6561161920708001,0.646034062649592,0,178.65392556105508,1.4657865502522327,0,71,181.1399822854437,69,179.67198141949484,1.0289855072463767,0.9965709607428165,0.003429039257183533,-5.672040225099238,1,177.65111707389588,1.1654522497556172,0,32,179.83662932552397,16,178.6694972772384,2.0,0.5174396689200056,0.4825603310799944,-0.06978698507610913
36,0,177.73555420705816,1.182386135624256,1,71,179.92194823437603,64,178.7376993871876,1.109375,3.6415315207705135e-14,0.9999999999999636,30.943786961292922,1,170.68105596589157,0.7990637849434279,1,14,172.49927506345557,8,171.69901621958707,1.75,0.010009393999205751,0.9899906060007942,4.594171402240876,0,183.64056658034679,1.0323807627428323,0,51,185.69286709837615,7,184.65869117935654,7.285714285714286,0.984557778325612,0.015442221674388043,-4.155087159272977,0,182.33775406359928,0.9991154589224607,1,56,184.35663678427227,59,183.35579965048237,0.9491525423728814,0.2528470545799303,0.7471529454200697,1.0834851318116476
37,0,182.42240215925267,1.0151908776024356,1,54,184.45865175232757,80,183.4412386578042,0.675,0.0,1.0,inf,1,175.00013906136155,0.9995172356721014,1,46,177.01920864579733,36,176.01843195629772,1.2777777777777777,0.040006766603182364,0.9599932333968176,3.1778776310053622,1,188.19361810892588,1.332086916489061,0,87,190.5457239410025,89,189.21188295452157,0.9775280898876404,0.9993069267400745,0.0006930732599255329,-7.273681536637235,0,186.8567782160244,0.9656842295080423,1,12,188.82637670787517,23,187.8587578656734,0.5217391304347826,0.06041560352467834,0.9395843964753217,2.744190238006969
38,1,186.95829185191542,1.433140701672528,1,62,189.39473407668993,43,187.95987051486736,1.441860465116279,8.92921082185083e-07,0.9999991070789178,13.928766740866523,0,179.5199892859673,0.715221218240913,1,38,181.23868743423373,43,180.52209416986443,0.8837209302325582,0.006076763589231149,0.9939232364107689,5.0971877268724635,0,193.04668709920952,0.7650893469108269,0,45,194.81561643705936,60,194.04845815669978,0.75,0.9405466873755236,0.0594533126244764,-2.761269945755088,1,191.32687527459348,0.8824314886005595,1,37,193.2292399504804,54,192.34508046600968,0.6851851851851852,0.061225467459869565,0.9387745325401304,2.7300120980120917
39,1,191.89517852006247,1.082408891117666,1,69,193.98119273595512,61,192.89699224417564,1.1311475409836065,2.8466118351389014e-13,0.9999999999997153,28.887476751636257,1,183.73979083902668,1.432488061254844,0,87,186.19182729837485,89,184.75805686978856,0.9775280898876404,0.03633819308330399,0.963661806916696,3.2778710711543075,1,197.3160012262524,0.8495513689704239,0,53,199.18569397955434,55,198.33402824524092,0.9636363636363636,0.9772182933508323,0.02278170664916763,-3.758752185414452,1,195.73011263972148,0.8988209806266241,0,66,197.6485175738926,59,196.74797531345394,1.11864406779661,0.503759277955988,0.49624072204401204,-0.015037395176271588
40,1,203.50390083022648,0.931682137248572,1,88,205.45560741383815,96,204.52181486185873,0.9166666666666666,0.0,1.0,inf,1,195.6988522693864,0.6825477154343389,1,37,197.39969880564604,54,196.71586003154516,0.6851851851851852,0.0015482153292212253,0.9984517846707788,6.469102996871207,0,208.70808681537164,1.3657721700146794,0,60,211.0931328162551,70,209.7255350702908,0.8571428571428571,0.9875993466183157,0.01240065338168426,-4.377527932591339,1,207.17196206154767,1.3653486648690887,0,16,209.55732411105419,10,208.1896153530106,1.6,0.23883993777912482,0.7611600622208752,1.1590500560126409
41,1,207.95578637637664,1.8161007816088386,1,54,210.79227861581603,31,208.97440243104938,1.7419354838709677,0.003297331760752642,0.9967026682392474,5.7113389149774685,1,199.90073663037037,0.5487508968217298,1,19,201.46833271702053,37,200.91845273651415,0.5135135135135135,0.0008032708813137113,0.9991967291186863,7.126014970596702,1,213.5936906420975,0.9823585603153333,0,88,215.59645962319337,96,214.61197484564036,0.9166666666666666,0.999323835096596,0.00067616490340402,-7.298397178117054,0,212.05704993882682,1.482693571888376,0,53,214.54277560231276,15,213.05879097175784,3.533333333333333,0.9216382927137134,0.0783617072862865,-2.464817458766059
42,1,213.2928822687245,0.7493485447485,1,46,215.06179540907033,36,214.31081368302694,1.2777777777777777,2.761181633337273e-07,0.9999997238818367,15.10243665871096,0,203.96988017013064,1.1336621029186063,0,50,206.1230377330212,7,204.98815844778437,7.142857142857143,0.6531114355298059,0.3468885644701941,-0.6327441778556366,0,218.09670495591126,1.0830358525854535,0,78,220.1995878725429,65,219.1145869876491,1.2,0.9985574807371841,0.001442519262815943,-6.539920645203924,0,217.04362498299452,1.2317343642935157,1,15,219.2790515854722,42,218.04601036006352,0.35714285714285715,0.01647719286522409,0.9835228071347759,4.089163653201674
43,0,217.5626274070819,1.482295350637287,0,62,220.06513643817743,17,218.58070222847164,3.6470588235294117,0.9999977440100521,2.255989947884871e-06,-13.001919424070687,0,208.62299941212405,0.44848999864188954,1,14,210.07443182356656,57,209.62464642059058,0.24561403508771928,4.222314987978315e-05,0.9999577768501202,10.072499687943147,1,222.70005918008974,0.6648821770795621,0,10,224.3850487662712,44,223.71838209964335,0.22727272727272727,0.24859039882282985,0.7514096011771701,1.1061443534314566,0,221.78065987792797,1.398850215075072,1,28,224.19913710822584,41,222.79900097026257,0.6829268292682927,0.07089965357414485,0.9291003464258552,2.5729512011020605
44,1,222.5654706596397,1.0158273205161095,1,10,224.58522527944297,44,223.5675763336476,0.22727272727272727,0.0,1.0,inf,0,212.57575527724111,0.5153263834654354,1,15,214.1108224533382,42,213.59426031977637,0.35714285714285715,0.00026031079112742717,0.9997396892088726,8.253373945643355,1,226.88602812198224,1.0655271533178166,0,46,228.97165754862363,36,227.90456002869178,1.2777777777777777,0.960548011953574,0.039451988046426044,-3.1924195272749945,1,226.70041433977894,1.1652717069955543,0,62,228.88557024655165,43,227.71903671539621,1.441860465116279,0.7282494432595372,0.27175055674046283,-0.9857590566262254
45,0,227.08574122883147,0.9322166545316577,1,55,229.03788395959418,60,228.10392232157756,0.9166666666666666,4.440892098500626e-16,0.9999999999999996,35.35050620855721,0,216.6114822048694,0.9824316465528682,0,95,218.59710554761114,16,217.61344684218056,5.9375,0.9975772149234655,0.0024227850765345233,-6.0204118177015,0,231.47259305260377,1.3167186566861346,0,53,233.80881428031716,15,232.49025898601394,3.533333333333333,0.9863891418424007,0.013610858157599326,-4.28318307578876,0,231.3869122680626,1.2825372068327852,0,96,233.68892715714173,89,232.4050902003073,1.0786516853932584,0.6607436587048878,0.33925634129511223,-0.6666099656804283
46,0,231.5387886487879,0.7823902441887185,1,7,233.34091889561387,54,232.55671018653084,0.12962962962962962,0.0,1.0,inf,1,221.0979889035225,0.598652210610453,1,25,222.69961197127122,37,222.09965289960383,0.6756756756756757,0.0018820757429021118,0.9981179242570979,6.273496143593102,0,236.30925398296677,1.8832176595460624,0,62,239.21232463250635,17,237.32704752107384,3.6470588235294117,0.9950597210383577,0.004940278961642265,-5.305380956927942,0,236.19013525301125,0.8155445359880105,1,9,238.0252613722114,7,237.20846725895535,1.2857142857142858,0.15927714559008566,0.8407228544099143,1.6636163238582242
47,1,235.8420926211984,1.733041225350462,0,82,238.59436580102192,40,236.85905455629108,2.05,0.42773929276698186,0.5722607072330181,0.29108078848047614,1,225.20072130201152,1.032810983946547,0,58,227.2530550051015,6,226.21883958001854,9.666666666666666,0.8677533258527956,0.13224667414720437,-1.8812385652692039,1,241.7127426068182,0.9986552131013013,0,75,243.7306266137748,70,242.7309055267251,1.0714285714285714,0.9978170518997963,0.0021829481002037282,-6.124893642021169,1,240.5263007771573,1.148962412320543,0,53,242.67853508295957,40,241.52816111844731,1.325,0.565002109565599,0.434997890434401,-0.26148828338305835
48,0,241.09492718236288,0.5652431046473794,1,45,242.68045784381684,92,242.11290837434353,0.4891304347826087,0.0,1.0,inf,1,229.7538664599415,0.5158620858564973,1,42,231.28906479629222,67,230.7718421210302,0.6268656716417911,0.0007370594477472681,0.9992629405522527,7.212104676017413,0,246.23252646112815,1.732801818579901,0,24,248.98501929471968,90,247.25046024582116,0.26666666666666666,0.48041871606422715,0.5195812839357729,0.0783652152274038,0,245.17929952562554,0.9990210393443704,1,35,247.19791716051986,62,246.1976690622978,0.5645161290322581,0.025214900179127198,0.9747850998208728,3.654781939532237
49,1,245.18101527460385,0.6982150363037363,1,14,246.89924132527085,57,246.1993856014451,0.24561403508771928,0.0,1.0,inf,1,233.78974035021383,0.6318100579082966,1,28,235.4246425490128,82,234.79138024756685,0.34146341463414637,1.8861770571532155e-05,0.9999811382294285,10.878354543496243,0,251.4858042805572,1.3495126530178823,0,60,253.85493249201681,40,252.50371910230024,1.5,0.991598025743195,0.008401974256805032,-4.77085110037207,1,249.69886807183502,1.4995634578517638,0,82,252.2178697058116,40,250.7169654116733,2.05,0.9691476368519977,0.03085236314800238,-3.447203611648024
50,0,249.40042334713507,0.6492800412233919,1,28,251.06920477421954,41,250.41821411979618,0.6829268292682927,1.1901590823981678e-13,0.999999999999881,29.759519228046234,0,237.9260801752098,0.9992869152920321,1,53,239.94482422951842,57,238.94417672487907,0.9298245614035088,0.010653803926018335,0.9893461960739817,4.531127312421958,1,256.35573999624467,1.1657355083734728,0,45,258.54177688859636,40,257.3740716071334,1.125,0.9536239120447129,0.04637608795528709,-3.023485390942242,1,254.71936343063135,1.0158474686322734,1,40,256.75472453201655,93,255.73761168366764,0.43010752688172044,0.0029072132551213326,0.9970927867448787,5.837648853513228
51,0,253.56989731581416,0.8653557759826072,1,68,255.45574449998094,63,254.58828976604855,1.0793650793650793,2.1094237467877974e-14,0.9999999999999789,31.489776497516594,1,242.44570956076495,1.149456238374114,1,62,244.61435469187563,43,243.4635805307771,1.441860465116279,0.1561559627018294,0.8438440372981706,1.6871124188585096,1,261.04236315883463,1.1324970686691813,0,41,263.19493958726525,7,262.0603321038652,5.857142857142857,0.9521283641457188,0.04787163585428126,-2.9901766863197583,1,259.25572443089914,0.9162597540416755,1,4,261.19106404093327,22,260.27340221614577,0.18181818181818182,0.028336052094403152,0.9716639479055968,3.534875092581981
52,1,257.95606291893637,0.7986892673070543,1,4,259.7751187552931,22,258.974537541857,0.18181818181818182,1.3646861418692424e-10,0.9999999998635314,22.714926460302166,0,247.11552683723858,1.2326173251494765,1,87,249.3675479682861,76,248.13364827580517,1.144736842105263,0.13890231509771556,0.8610976849022844,1.8244370361716802,0,265.6947317853337,2.3330974820419215,1,7,269.03179607278435,54,266.6968888172414,0.12962962962962962,0.1698451347936002,0.8301548652063998,1.5867252179109992,0,263.69218285311945,1.716270104632713,1,45,266.42760194937,42,264.71009135385975,1.0714285714285714,0.31139704500446774,0.6886029549955323,0.7935960722379174
53,1,262.2756307540694,0.7326896212762222,1,42,264.0279414646211,39,263.2934483908466,1.0769230769230769,1.5028789324134095e-09,0.9999999984971211,20.315883278540216,1,251.8686383360764,1.0154480621567927,1,6,253.9041594370501,8,252.88741715572542,0.75,0.003233784370206494,0.9967662156297935,5.730863171578834,0,271.53275211987784,3.0337883643223904,1,15,275.5861094255233,42,272.55064323794795,0.35714285714285715,0.3781359829768485,0.6218640170231515,0.4974675724361314,1,268.9286192309228,1.1994634284637868,0,69,271.14729525579605,61,269.946536028001,1.1311475409836065,0.5419828721421276,0.45801712785787246,-0.16832781924200807
54,1,266.52889553643763,2.1667456788709387,1,94,269.7157703527482,46,267.5467590002809,2.0434782608695654,0.45321846416046907,0.5467815358395309,0.18767506653983676,0,256.4052778541227,2.7820888127898797,1,12,260.20791851950344,3,257.4243853644002,4.0,0.013133983452144893,0.9868660165478551,4.319331254197424,1,278.0869327321998,1.7330791511922143,1,17,280.8399829965783,82,279.1051011829404,0.2073170731707317,0.31240139351923624,0.6875986064807638,0.7889163682197956,1,273.64841169759165,1.4161578283528797,1,55,276.08421313372673,95,274.66668681480223,0.5789473684210527,0.012541003752542745,0.9874589962474573,4.366131397061958
55,1,272.216701906058,0.8818811688688584,1,52,274.11769532592734,68,273.2340000378899,0.7647058823529411,0.0,1.0,inf,0,262.709074072307,0.7825008612708189,1,45,264.5111517760088,60,263.7271413875278,0.75,0.002464676653959219,0.9975353233460408,6.0032269359866985,1,283.34033736609854,1.0654034992912784,0,94,285.4258150894311,46,284.3586721374304,2.0434782608695654,0.999825407641708,0.00017459235829199516,-8.652882074856869,1,278.58498113189125,0.9656755381729454,1,14,280.5703607221367,8,279.6033917549066,1.75,0.23103287046513443,0.7689671295348656,1.2024882273795852
56,0,276.61824406537926,1.4491568612284027,1,14,279.0713302012882,7,277.62045206013136,2.0,0.1286618859522809,0.8713381140477191,1.9128421678711915,1,267.0121038725483,0.615304418024607,1,14,268.6466840967187,57,268.0301395828719,0.24561403508771928,4.222314987978315e-05,0.9999577768501202,10.072499687943147,0,287.92678733402863,1.4488277756026946,1,6,290.3796016681008,26,288.9291174025857,0.23076923076923078,0.20814973040684714,0.7918502695931529,1.3361146419443055,1,283.0714996823808,1.1159100462682545,0,87,285.2071844965685,89,284.0898431450478,0.9775280898876404,0.42017371708082385,0.5798262829191762,0.32206030860869933
57,0,281.57190461969003,0.6617900362471119,1,56,283.2569360823254,59,282.5933583959704,0.9491525423728814,2.4424906541753444e-15,0.9999999999999976,33.64575811631878,1,271.1482121918816,0.9487262449692935,1,56,273.1164287610445,46,272.16635496367235,1.2173913043478262,0.05340135326955808,0.9465986467304419,2.8750391000887534,1,292.87969845795305,0.9824510045582429,0,69,294.86512387526454,61,293.8814205279923,1.1311475409836065,0.9961041669670585,0.0038958330329415154,-5.543944308583456,1,287.7079445935087,0.665118423406966,1,15,289.3763123919489,42,288.7096962930518,0.35714285714285715,0.01647719286522409,0.9835228071347759,4.089163653201674
58,0,285.75773608044256,1.2164170672767796,1,9,287.99404050793964,7,286.7757362352568,1.2857142857142858,0.010504235376780025,0.98949576462322,4.545416939664188,0,275.61767912848154,0.5997291463427246,1,24,277.2363739582361,90,276.63552678987617,0.26666666666666666,4.368347612304646e-06,0.9999956316523877,12.341121372759385,1,297.36609690997284,1.7828568109543994,0,32,300.15274472435704,16,298.36807418923127,2.0,0.8610167229838122,0.13898327701618785,-1.8237603103276416,1,291.8775481421035,1.0651364382356405,0,74,293.96212078112876,60,292.8957177780685,1.2333333333333334,0.6911971933112312,0.3088028066887688,-0.8057222497512875
59,1,290.49417364341207,1.03281572466949,1,98,292.53052476712037,73,291.4959964539157,1.3424657534246576,4.8692161414010116e-12,0.9999999999951308,26.04808814837525,1,279.7371826476301,1.3661166630336083,1,33,282.12287062231917,25,280.75541746860836,1.32,0.021984820405085093,0.9780151795949149,3.7951729573481336,1,302.65359568526037,1.1160554285743274,0,66,304.7894480052637,59,303.6711059647496,1.11864406779661,0.9946254570919035,0.0053745429080964266,-5.220692711216206,0,296.4634612224181,1.232666707772296,0,51,298.71586872288026,7,297.4818631540984,7.285714285714286,0.9502719142239705,0.04972808577602954,-2.9501782894910358
60,1,302.0533865400939,0.7153338105417788,1,25,303.7875082567916,37,303.07031331479084,0.6756756756756757,1.546540673302843e-12,0.9999999999984535,27.195000502901703,1,291.6298027540324,0.6963495592935942,1,10,293.3303237602231,44,292.63251563650556,0.22727272727272727,0.00010230890388784886,0.9998976910961122,9.187411537629524,0,314.31206207507057,1.8331843954510987,0,87,317.1641671170364,85,315.3292586763273,1.0235294117647058,0.999342313726491,0.0006576862735090417,-7.326124625674667,1,308.2225401144824,0.8987281412701122,1,14,310.1401920627686,57,309.24005671491614,0.24561403508771928,0.0039858399314290915,0.9960141600685709,5.521013411130252
61,1,306.28820948966313,0.6817532482091337,1,66,307.9735617416445,59,307.290100250626,1.11864406779661,4.656275365277907e-13,0.9999999999995344,28.39539035821477,1,295.83095467230305,0.7820188871119171,1,50,297.61620515666436,62,296.8328971862211,0.8064516129032258,0.0040041976635379894,0.995995802336462,5.516399816301625,0,319.6645333383931,1.5662710527540185,0,62,322.2348150483449,16,320.66656434588367,3.875,0.9951237553849877,0.004876244615012332,-5.3184917291873,0,312.6413341835141,0.9319910747581162,0,50,314.5930032363394,7,313.65978312742664,7.142857142857143,0.9448164636911086,0.05518353630889139,-2.840326036792243
62,0,310.4744166532182,0.8997007809812203,1,28,312.39352914126357,18,311.49223666038597,1.5555555555555556,0.0026372320927063875,0.9973627679072936,5.935384645848876,1,300.11756811634405,0.9824375725002028,1,3,302.11944465513807,18,301.13576422136975,0.16666666666666666,0.0006920578114830711,0.9993079421885169,7.275148765836466,1,324.7345175675582,1.950244858628139,1,28,327.70440603396855,82,325.7524687348632,0.34146341463414637,0.6206916956605628,0.37930830433943724,-0.4924851520287453,1,317.0941283694701,0.8156286839512177,1,50,318.92936747608474,62,318.11244062235346,0.8064516129032258,0.11847011708617516,0.8815298829138248,2.00699814905036
63,1,314.89435995410895,0.8650255051325075,1,55,316.77926649851725,95,315.91268366377335,0.5789473684210527,0.0,1.0,inf,0,304.6198219381622,1.1658026687218808,0,53,306.7892599563347,15,305.622189932561,3.533333333333333,0.5410530350025126,0.45894696499748744,-0.16458264675268716,1,330.2049776869244,2.3661059964215383,1,26,333.5915904989233,84,331.22341359383427,0.30952380952380953,0.5580573254775557,0.4419426745224443,-0.23328151291938598,1,321.4304290044238,0.9989842986688018,1,24,323.44904387387214,69,322.44875389925437,0.34782608695652173,0.004151651046187754,0.9958483489538122,5.480088888326159
64,0,319.2800408176845,0.6155939975869842,1,60,320.91549333609873,61,320.2981930709211,0.9836065573770492,2.4424906541753444e-15,0.9999999999999976,33.64575811631878,0,309.29053244710667,1.665888791962061,0,87,311.9752877622959,85,310.30855472537223,1.0235294117647058,0.055689647952517074,0.9443103520474829,2.8306605988519595,1,336.0918299057521,1.4160440508276224,1,15,338.51223621790996,42,337.09376925916877,0.35714285714285715,0.3781359829768485,0.6218640170231515,0.4974675724361314,0,325.9500816985965,0.9154601510381326,0,62,327.86859329912113,17,326.9519049041555,3.6470588235294117,0.9636390500200251,0.0363609499799748,-3.2772213990245467
65,0,323.41626093920786,1.716665165440645,0,62,326.1533562784316,17,324.4343096865923,3.6470588235294117,0.9999977440100521,2.255989947884871e-06,-13.001919424070687,1,314.4768047957332,0.8818116381880827,1,24,316.3619949937565,69,315.47889624757227,0.34782608695652173,4.5704577599003926e-05,0.999954295422401,9.993266393178164,1,341.0122243660735,0.8483096928684972,0,62,342.8643985436065,43,342.0141767564928,1.441860465116279,0.9930669680818561,0.006933031918143921,-4.964500878184642,0,330.3696891978034,0.8325519030913711,0,62,332.2218538938905,17,331.3879161175573,3.6470588235294117,0.9636390500200251,0.0363609499799748,-3.2772213990245467
66,1,328.65303785947617,1.2499059754773043,1,26,330.922678306757,84,329.6711885324912,0.30952380952380953,0.0,1.0,inf,1,318.8632824969245,0.9158232118934393,1,40,320.79826813249383,93,319.8811941581662,0.43010752688172044,3.033598201473975e-05,0.9999696640179853,10.403145688318226,1,345.3651361220982,0.8323026197613217,1,14,347.21723128750455,57,346.3833251160686,0.24561403508771928,0.30775834981487804,0.692241650185122,0.8106202036218187,1,334.72268905240344,1.3147872044355609,1,33,337.0409978287644,25,335.7249440593878,1.32,0.35124770952654083,0.6487522904734592,0.6135592653629792
67,1,333.4231531698024,1.1661582234082744,1,28,335.6089593466604,82,334.44120231218403,0.34146341463414637,0.0,1.0,inf,0,323.29931425343966,0.6992737992550246,1,37,325.0181605495163,52,324.31754512380576,0.7115384615384616,0.0019354120139429831,0.998064587986057,6.245497760719977,1,349.71813479153207,0.965725710906554,0,97,351.7040204546647,61,350.7362084277556,1.5901639344262295,0.9998501451649691,0.00014985483503092035,-8.805693632852469,0,339.54246310924646,0.898985720879864,0,78,341.4607143647154,34,340.56044785672566,2.2941176470588234,0.9717112255251065,0.02828877447489354,-3.5365936029447758
68,1,338.1096981103183,0.9153728425735608,1,3,340.04523683100706,18,339.12804828904336,0.16666666666666666,5.078456322138436e-09,0.9999999949215437,19.098258490051297,0,327.5189731895807,1.4490260961465538,0,78,329.97091088374145,34,328.5206585189444,2.2941176470588234,0.8309667979828542,0.16903320201714575,-1.5924946824977315,0,354.204030331166,1.1824031231808476,0,43,356.3898910264252,7,355.20565995696234,6.142857142857143,0.9616965421558755,0.038303457844124526,-3.223158780910402,0,343.9619552507065,0.614952418836765,1,38,345.58000573626487,43,344.9637934685452,0.8837209302325582,0.16101503936355877,0.8389849606364412,1.6506950081447809
69,1,342.54588868131395,1.115803379798308,0,58,344.682253395149,6,343.56423886009725,9.666666666666666,0.9999999997911931,2.0880685169167966e-10,-22.28961144563432,0,332.47199335030746,0.7824696514289826,1,56,334.2574342539883,59,333.4737138400669,0.9491525423728814,0.013016017003419589,0.9869839829965804,4.328473135071392,0,358.8909640115453,0.848417149449233,1,14,360.75995276652975,57,359.90926717803814,0.24561403508771928,0.30775834981487804,0.692241650185122,0.8106202036218187,1,348.0814765476389,1.3828597344690934,0,41,350.48391470481874,7,349.09974415862234,5.857142857142857,0.8643213912896422,0.13567860871035775,-1.8516557625031167
70,1,347.18234228383517,0.7818580973544158,1,42,348.98420112387976,67,348.2006201664335,0.6268656716417911,0.0,1.0,inf,0,336.75864985602675,1.0822931383154355,1,80,338.86047954059904,60,337.77690522017656,1.3333333333333333,0.2630452455420711,0.7369547544579289,1.0302004451330251,1,363.2605765674962,1.816015053424053,0,53,366.0966370055103,40,364.27878452435834,1.325,0.9812091164594531,0.018790883540546883,-3.9554137693048173,0,352.98473406088306,1.1988419978297316,1,54,355.2037826280575,80,354.00356700387783,0.675,0.04093450000257226,0.9590654999974277,3.15398614453095
71,0,351.48549613315845,1.365849997033365,1,41,353.871481588576,22,352.5036724851234,1.8636363636363635,0.037910742074447,0.962089257925553,3.233872726095397,1,341.3619531173608,0.9161475567962043,1,69,343.2972228016588,61,342.3797778651933,1.1311475409836065,0.06268164951203847,0.9373183504879615,2.704954246048336,1,368.5974990281393,1.149251991941128,0,55,370.7668414415675,95,369.6155505409115,0.5789473684210527,0.9697429960200447,0.03025700397995539,-3.4673033896307874,1,357.7047596134362,1.4495851071551442,0,94,360.1735841811169,46,358.7227155214641,2.0434782608695654,0.9857498001935551,0.014250199806444893,-4.236631641941606
72,1,356.37153610697715,1.0996276157093234,1,14,358.49161246430594,8,357.3898045081296,1.75,0.04980093292715615,0.9501990670728439,2.948637789598284,1,345.79792956536403,0.8655999234761111,1,46,347.6667223702534,40,346.79966151190456,1.15,0.025955129724433257,0.9740448702755667,3.62508810330771,0,373.2672732429928,1.4161558530759066,0,28,375.7033350241836,41,374.2853271260974,0.6829268292682927,0.7369210943820113,0.26307890561798875,-1.0300268146624114,0,362.6746496601263,1.3157381158089265,0,86,365.00974140904145,59,363.69272250612266,1.4576271186440677,0.9013292838777465,0.0986707161222535,-2.21208244915211
73,1,360.99150895839557,0.8489129507215694,1,54,362.8601524302503,78,362.0094478788087,0.6923076923076923,0.0,1.0,inf,0,350.16754093620693,1.0996884550550021,1,9,352.28651467885356,7,351.18552449851995,1.2857142857142858,0.0055257174725464875,0.9944742825274535,5.192801140001496,0,378.2038841586909,1.115107677760534,1,12,380.3395041828626,23,379.2223607568303,0.5217391304347826,0.35483892930230987,0.6451610706976901,0.5978360413943005,1,367.51072194991866,0.6486230551381595,1,3,369.1628717127023,18,368.51288174727233,0.16666666666666666,0.035839930564797284,0.9641600694352027,3.2921946772194937
74,0,365.3611112427898,0.8339109122171067,1,45,367.21462625666754,60,366.37968937162077,0.75,0.0,1.0,inf,1,354.7872834671871,0.81519095657859,1,12,356.6222179819015,9,355.8057588801603,1.3333333333333333,0.006758673879771582,0.9932413261202284,4.9901469626509485,1,382.8405941555975,0.9991616809857078,0,54,384.8588854702539,78,383.8580534722423,0.6923076923076923,0.9727134457604149,0.027286554239585134,-3.5736954707445454,0,371.6638111672946,0.6650943246786483,1,58,373.33201383030973,58,372.66555970633635,1.0,0.3152587154752171,0.6847412845247829,0.7756474593987421
75,0,369.71385707333684,1.082166323729325,1,86,371.81659144710284,59,370.73252606613096,1.4576271186440677,1.7428870235924876e-08,0.9999999825711298,17.86513777930235,0,359.12429244612576,0.6990533553180285,1,45,360.84202032507164,42,360.141616651963,1.0714285714285714,0.018149789288183893,0.9818502107118161,3.990779810626131,1,387.35999006027123,1.0157135429908521,1,56,389.3952954580309,46,388.37777925265254,1.2173913043478262,0.9856028367118479,0.014397163288152154,-4.226222277634637,1,375.8335379748605,0.5649788089212961,1,17,377.4179644413525,82,376.85170642560115,0.2073170731707317,0.0006140709467851169,0.9993859290532149,7.394785828416814
76,0,374.31720616167877,0.9314146810793318,1,53,376.2694389662356,57,375.33628562261583,0.9298245614035088,3.9968028886505635e-15,0.999999999999996,33.153281631220985,0,363.3432157790521,2.732896238041576,1,43,367.07929739227984,7,364.34510891034734,6.142857142857143,0.4105091159709112,0.5894908840290888,0.36186112031509604,1,391.89605911052786,1.7661188753554597,0,25,394.68232648138655,37,392.9145973382401,0.6756756756756757,0.675462546529995,0.3245374534700049,-0.7329967618138761,0,379.91912947566016,0.982136141101364,0,43,381.905149064376,7,380.92138132214313,6.142857142857143,0.888088226493798,0.11191177350620196,-2.0713602679007
77,0,378.7701078041573,1.6494108063634485,0,50,381.4394529830315,7,379.7883137857425,7.142857142857143,0.9999999602913278,3.9708672241158026e-08,-17.041696189038426,1,369.5804940314265,0.8993993495823815,1,74,371.49926913750824,60,370.5984973467421,1.2333333333333334,0.13207684445094725,0.8679231555490527,1.8827192721365114,1,397.1832169484114,1.4993185201310553,0,74,399.70210599002894,60,398.20115033799084,1.2333333333333334,0.9978486591404646,0.002151340859535348,-6.139510317319423,0,384.4056503964821,0.7823068863945082,1,14,386.19100754725514,7,385.40742105897516,2.0,0.24705986250742584,0.7529401374925742,1.1143550603642647
78,1,383.93987411784474,0.6486914005945437,1,50,385.59243513894035,62,384.9418916932773,0.8064516129032258,0.0,1.0,inf,1,374.00018014770467,1.4322763087111525,0,82,376.45273848238867,40,375.01906444859924,2.05,0.8160820037079439,0.18391799629205605,-1.490024858713201,0,402.2032251972705,1.7326971274451353,0,41,404.9562861282611,22,403.2218132026028,1.8636363636363635,0.9423243848142895,0.057675615185710565,-2.793515102429393,0,388.69207895209547,1.9640305050415918,1,71,391.6776284184889,69,389.71227524994174,1.0289855072463767,0.4213989953776863,0.5786010046223137,0.317033011482969
79,1,388.0932422481128,0.6658690389594994,1,15,389.7784815127379,56,389.11089237913257,0.26785714285714285,0.0,1.0,inf,1,378.9534950238303,0.6986737019033171,1,16,380.67188699997496,10,379.97191038756864,1.6,0.01062773370407366,0.9893722662959263,4.5336036960575505,0,407.4565587202087,1.06603441137122,0,56,409.54288424400147,59,408.4748140843585,0.9491525423728814,0.9829730151448677,0.017026984855132335,-4.055782238262987,0,394.17916322965175,1.4660141052445397,0,78,396.66456968401326,65,395.1972637299332,1.2,0.6909288677265608,0.30907113227343913,-0.8044654254698543
80,0,399.3013606683817,0.731446364952717,1,14,401.0526205172646,57,400.31925336667337,0.24561403508771928,0.0,1.0,inf,0,390.17869903321844,0.7486267687054351,1,68,391.94631755934097,63,391.19631242356263,1.0793650793650793,0.04433445119364565,0.9556655488063543,3.070645953366758,0,419.065510165703,1.4326583324582316,0,95,421.51748104498256,16,420.08288375410484,5.9375,0.9998951312682949,0.00010486873170508896,-9.16269628993292,0,406.1868080510176,1.3160664113238454,0,62,408.5214529861696,16,407.204028355889,3.875,0.9666040581295241,0.03339594187047595,-3.3653545660398665
81,0,403.553429601714,0.6644736842135899,1,22,405.238445261959,31,404.57230797671946,0.7096774193548387,1.593660758913984e-10,0.9999999998406339,22.559817195831148,1,394.44710531056626,0.5658945598406717,1,58,396.0325427376665,58,395.4654669460724,1.0,0.019218099862983284,0.9807819001370167,3.9324975746612973,1,424.0177157110884,1.2657842588960193,0,58,426.303787526791,58,425.03590826055733,1.0,0.9866378254293706,0.013362174570629437,-4.301875105112988,1,411.0230024146149,0.9658991425530985,1,6,412.99198579677613,8,412.02483194117667,0.75,0.11092707599882279,0.8890729240011772,2.081306248969919
82,1,407.74005671491614,0.9324608020833693,1,16,409.69253801275045,10,408.75785538880154,1.6,0.018574815553808577,0.9814251844461914,3.967199124335276,0,398.53325898287585,1.4660899569280446,1,96,401.0188732392271,89,399.5515103964135,1.0786516853932584,0.11929820189249218,0.8807017981075078,1.9990928306490752,0,428.8038195267436,1.1162264899467118,0,59,430.9236169711803,65,429.8056652507512,0.9076923076923077,0.9869597785232527,0.013040221476747372,-4.326590746592807,0,415.49321917659836,2.0496524255140685,1,40,418.5624160495936,15,416.5115235282574,2.6666666666666665,0.7382201443369424,0.2617798556630576,-1.0367381736817647
83,1,412.1953480801312,0.6487542152754031,1,45,413.8614644271438,40,413.2108384137973,1.125,2.588637748601741e-09,0.9999999974113623,19.772134062805687,0,403.5198103234288,1.049812030105386,1,41,405.57263232168043,22,404.5216299734311,1.8636363636363635,0.08922998016046979,0.9107700198395302,2.3230733337833915,0,433.424285809102,1.9158216316718608,0,54,436.3599497640389,80,434.44239421060774,0.675,0.97200877941387,0.02799122058613004,-3.5474739262258304,0,421.0635814788984,1.1448091382044367,0,95,423.2284126931336,16,422.0822962987586,5.9375,0.9990802411916653,0.000919758808334685,-6.990478905099999
84,1,416.36204398132395,0.7158177600358613,1,46,418.0972694978118,40,417.3797051740112,1.15,4.3826198226071256e-09,0.9999999956173802,19.245619153970367,1,408.0730246170424,0.8475096948095597,1,32,409.94127618859056,16,409.0924627931672,2.0,0.05064050141565546,0.9493594985843445,2.931035865835101,0,438.86108753911685,1.3316160040558316,0,96,441.21417588734766,89,439.8802523331833,1.0786516853932584,0.9997569744600254,0.00024302553997457716,-8.322100962295131,1,425.7334698663326,0.8818432430853136,1,52,427.6348796802922,68,426.75186034129,0.7647058823529411,0.08979891573994958,0.9102010842600504,2.316092645744695
85,0,420.5983010015334,0.8995348554453813,1,37,422.51710218167864,52,421.6159151820466,0.7115384615384616,2.220446049250313e-16,0.9999999999999998,36.04365338911715,0,412.44214848277625,0.7826897003105842,1,14,414.2442913715495,7,413.46041372342734,2.0,0.011180188612648023,0.988819811387352,4.482368784165277,1,443.71613854938187,1.84994761494454,1,3,446.58372167806374,18,444.7320251290221,0.16666666666666666,0.17069614048767812,0.8293038595123219,1.580701605755409,0,430.13631296082167,0.9328139863791876,1,71,432.0885998887825,64,431.15441859693965,1.109375,0.5308688964614651,0.46913110353853493,-0.12363282359363105
86,0,425.017478674592,0.6320866004680283,1,60,426.65331677236827,70,426.0195140278083,0.8571428571428571,0.0,1.0,inf,1,416.74616395967314,0.5820312129799277,1,53,418.34706999210175,40,417.7636979428353,1.325,0.06720217911786075,0.9327978208821393,2.630482805136979,0,449.0841973312781,1.5157522589433938,0,14,451.62007912277477,7,450.1026845960878,2.0,0.46130711921856227,0.5386928807814377,0.1550815906539335,0,434.58898191252956,0.7990302047692239,1,7,436.3911303321365,54,435.5907723280834,0.12962962962962962,0.0024103268570428993,0.9975896731429571,6.025579678975838
87,0,429.1536853641155,0.7819762204890139,1,80,430.95617472118465,60,430.1723934679176,1.3333333333333333,2.626960871054962e-10,0.9999999997373039,22.06002331400156,1,420.8480714712059,1.1827559124794789,1,98,423.0502066957997,73,421.86617118143477,1.3424657534246576,0.5184720893201769,0.48152791067982315,-0.07392200089480476,1,454.1213038112037,0.8491053453763016,1,12,455.9905173557927,9,455.1393379413057,1.3333333333333333,0.39788504992541174,0.6021149500745883,0.4142852297632928,1,438.8920970459003,0.581881089892704,1,19,440.477174967702,37,439.8939407946309,0.5135135135135135,0.038825123820206975,0.961174876179793,3.2090888073299046
88,0,433.4565500289318,1.3826578584266827,1,38,435.859483987384,43,434.47508272569394,0.8837209302325582,2.9034552539997094e-12,0.9999999999970965,26.565119621270153,1,425.55126940930495,0.8162892255932093,1,97,427.38661123171914,61,426.5690135647892,1.5901639344262295,0.7813356543226475,0.21866434567735255,-1.2734669466345974,0,458.4908104909118,1.1828254431602545,0,58,460.69363786198664,58,459.5090010650456,1.0,0.9866378254293706,0.013362174570629437,-4.301875105112988,1,442.9779966941569,1.8827929692342877,0,98,445.86392368056113,73,443.9799170846236,1.3424657534246576,0.9085821990553192,0.09141780094468073,-2.2964451433231323
89,0,438.35988734447164,0.9824288811651058,1,78,440.362580473884,65,439.3782908563735,1.2,5.162537064506978e-13,0.9999999999994837,28.292178071095183,0,429.8872919214773,0.6658694339566864,1,71,431.5723135076114,64,430.9053102491307,1.109375,0.05973805999287274,0.9402619400071273,2.7561891579406033,1,463.1936572199338,1.5996777883847244,0,24,465.79699722188525,69,464.1953089691233,0.34782608695652173,0.5490816816415207,0.4509183183584793,-0.19696100221910787,0,448.3651274308213,1.399302164616529,1,60,450.7674087488558,61,449.3668467353564,0.9836065573770492,0.30569097102635756,0.6943090289736424,0.8203424550471191
90,0,442.8630869418266,1.0828414826537482,1,59,444.965401761001,65,443.8807955418015,0.9076923076923077,0.0,1.0,inf,1,434.07393207168207,0.7150019595283084,1,43,435.79209096194245,97,435.0758654991514,0.44329896907216493,2.97070414438938e-05,0.9999702929585561,10.424096747120286,0,468.29723425838165,1.7662986280047335,0,50,471.08361896226415,7,469.31547461019363,7.142857142857143,0.9826829694373326,0.017317030562667424,-4.038596111977656,0,453.268087463337,1.0997263808967546,1,77,455.387218045129,72,454.2862918645842,1.0694444444444444,0.5194104911082711,0.4805895088917289,-0.0776810036638225
91,1,447.46613183338195,1.6991939970175736,1,97,450.1858610903146,61,448.4844444813207,1.5901639344262295,7.192439481773505e-07,0.9999992807560518,14.145064529379841,1,438.29330774920527,0.7818711342988536,1,52,440.09456649189815,68,439.311434323492,0.7647058823529411,0.0027236837851457585,0.9972763162148542,5.903042582420691,1,473.5840041465126,1.249196051270701,1,14,475.8366949055926,8,474.5857558461139,1.75,0.45805075338110623,0.5419492466188938,0.1681923629132914,1,457.88826772163156,2.0332585878204554,1,54,460.94097396708094,31,458.90632358007133,1.7419354838709677,0.762156503335484,0.237843496664516,-1.1645390392197301
92,1,452.68681713740807,1.0824965945794247,1,53,454.78913748747436,55,453.7044198611402,0.9636363636363636,3.1308289294429414e-14,0.9999999999999687,31.094893498738955,0,442.5958374024485,0.6322604272281751,1,45,444.23112122993916,92,443.5976072747726,0.4891304347826087,6.902928341567804e-05,0.9999309707165843,9.580910714403375,1,478.33723218826344,1.0824574835714884,0,42,480.43981406855164,39,479.3556088360492,1.0769230769230769,0.9362625132370996,0.06373748676290031,-2.6871230213156343,1,463.4419185574516,0.9817086853436194,0,58,465.4268501487095,6,464.4438116887468,9.666666666666666,0.9782739390225416,0.02172606097745841,-3.8072772253978995
93,1,457.28929867228726,1.0160983321839012,1,6,459.32526935241185,8,458.30725062970305,0.75,0.0007758637839089255,0.9992241362160911,7.16075742446719,1,446.73217130149715,0.6494273988646455,1,75,448.4005398900481,70,447.74981945718173,1.0714285714285714,0.054235445517023195,0.9457645544829768,2.8586589817251284,1,482.94002384587657,2.367022537451703,0,98,486.3111060279771,73,483.9416522864485,1.3424657534246576,0.9998438996558181,0.0001561003441818791,-8.764855413035498,1,467.928345453809,1.4825256710755639,1,88,470.43035552313086,96,468.94675884227036,0.9166666666666666,0.3038268957599789,0.6961731042400211,0.8291402250171476
94,1,461.82559093192685,1.315105623449199,1,72,464.1613586298772,51,462.844477603212,1.411764705882353,4.3522742632085e-08,0.9999999564772574,16.949982172822942,0,450.90398758562515,0.5650435989373364,1,54,452.4860594898346,80,451.91974695562385,0.675,0.0009477221129510216,0.999052277887049,6.960501056993194,1,488.8113482002518,1.1162347861682065,0,50,490.9469259529724,62,489.82883872668026,0.8064516129032258,0.965024431296299,0.034975568703701054,-3.3175036377129823,1,472.93143798969686,1.0490065010963008,1,53,474.9835314958473,55,473.9331857386278,0.9636363636363636,0.25721215376768547,0.7427878462323145,1.0605092218467422
95,1,466.6618433694239,0.8996352008543909,1,15,468.58146430074703,42,467.6800564620644,0.35714285714285715,0.0,1.0,inf,0,454.9875200295937,0.6328640800784342,1,71,456.623341929866,69,455.9892725192476,1.0289855072463767,0.03505332902396585,0.9649466709760341,3.3152022483185353,0,493.44733602605993,1.2325134241255,0,78,495.70036179665476,34,494.4654096622253,2.2941176470588234,0.9990387886623289,0.000961211337671177,-6.946354585244012,0,477.48429554339964,0.965914154832717,0,7,479.45327220956096,54,478.4860729218926,0.12962962962962962,0.0024103268570428993,0.9975896731429571,6.025579678975838
96,0,471.0821082498296,0.9985039047896862,1,77,473.1008704769192,72,472.10018307116115,1.0694444444444444,2.220446049250313e-16,0.9999999999999998,36.04365338911715,0,459.1248317040736,0.9830345093505457,1,62,461.1267078478122,17,460.1425177855999,3.6470588235294117,0.7720205457017271,0.2279794542982729,-1.219755651106742,1,498.200546290027,0.7485505219665356,1,4,499.96932866529096,22,499.21909360412974,0.18181818181818182,0.17995481548720293,0.8200451845127971,1.5166536474975187,1,481.95426183682866,0.7318086357554421,1,46,483.7056109694531,36,482.972626632778,1.2777777777777777,0.4613411079315598,0.5386588920684402,0.15494481744720434
97,0,475.6015428703977,1.1325602783472277,0,95,477.75436897727195,16,476.6196548274602,5.9375,0.9999999999999772,2.2784212348997332e-14,-31.4127085396316,1,463.6266150085139,2.4167211850290187,1,72,467.0463145568501,51,464.6283746092813,1.411764705882353,0.2385458088729625,0.7614541911270375,1.1606686517907265,0,502.47013261396205,1.1149046164937317,0,40,504.6059659710154,15,503.4888833843288,2.6666666666666665,0.9409663334543168,0.059033666545683205,-2.768799460949575,1,486.2068664726103,0.7152362305787392,1,54,487.925333905383,78,487.20860315987375,0.6923076923076923,0.048442628041268976,0.951557371958731,2.977719810500312
98,1,480.2547857664176,0.9992146191070788,1,32,482.2738723384682,16,481.2728246372426,2.0,0.14707441956486877,0.8529255804351312,1.757733584960232,1,469.5469340122072,0.6821404077927582,1,26,471.23229772096965,84,470.5488721804577,0.30952380952380953,1.1351688327998488e-05,0.999988648311672,11.386132721980985,0,507.106032341253,1.06538295611972,0,55,509.1928386539803,60,508.1257170353201,0.9166666666666666,0.980662467210716,0.019337532789283993,-3.9261804187083067,1,490.4261540516163,0.8486656426684931,1,42,492.2774243300664,67,491.42824273800943,0.6268656716417911,0.03467379032852702,0.965326209671473,3.3264820057172915
99,1,484.7743472015136,0.8485925564309582,1,17,486.64294761174824,82,485.7925512077636,0.2073170731707317,0.0,1.0,inf,0,473.73353189090267,0.5821647435077466,1,6,475.33521895849844,26,474.7517232551472,0.23076923076923078,0.0004334457834025418,0.9995665542165975,7.743310296939207,1,511.69283430831274,1.8835139551083557,0,43,514.5964501417475,93,512.7107578213909,0.46236559139784944,0.8904779426269498,0.10952205737305017,-2.0956323666056393,1,494.7797441270086,2.266021690389607,1,75,498.0490424516611,70,495.7816384435282,1.0714285714285714,0.508559871668723,0.49144012833127704,-0.0342428322968786
