,self_acceptUp,self_cue_times,self_decision_times,self_decisions,self_punishment_values,self_response_times,self_reward_values,self_trial_times,self_punishment_reward_ratio,self_prob_reject,self_prob_accept,self_SV,harm_other_acceptUp,harm_other_cue_times,harm_other_decision_times,harm_other_decisions,harm_other_punishment_values,harm_other_response_times,harm_other_reward_values,harm_other_trial_times,harm_other_punishment_reward_ratio,harm_other_prob_reject,harm_other_prob_accept,harm_other_SV,harm_self_acceptUp,harm_self_cue_times,harm_self_decision_times,harm_self_decisions,harm_self_punishment_values,harm_self_response_times,harm_self_reward_values,harm_self_trial_times,harm_self_punishment_reward_ratio,harm_self_prob_reject,harm_self_prob_accept,harm_self_SV,other_acceptUp,other_cue_times,other_decision_times,other_decisions,other_punishment_values,other_response_times,other_reward_values,other_trial_times,other_punishment_reward_ratio,other_prob_reject,other_prob_accept,other_SV
0,1,0.004059644881635904,2.025970901362598,0,41,3.0536780953407288,7,1.025986704044044,5.857142857142857,0.8005529068068791,0.19944709319312093,-1.3897536183217438,1,0.004196335561573505,1.2410261938348413,1,52,2.270027211867273,68,1.0271588494069874,0.7647058823529411,0.0017136827735494409,0.9982863172264506,6.36739540273776,0,0.004373718053102493,1.8249884638935328,1,12,2.8534051873721182,23,1.0267788008786738,0.5217391304347826,0.0016947405214772227,0.9983052594785228,6.378529456323809,0,0.003220140468329191,1.8099153148941696,1,7,2.8361872527748346,54,1.0249919407069683,0.12962962962962962,0.00021165410188772604,0.9997883458981123,8.460345534158206
1,1,5.5541268843226135,1.399235399439931,1,33,7.973298236262053,25,6.572392520029098,1.32,0.009380835264659937,0.9906191647353401,4.659661360101553,1,4.770342865493149,0.782557750120759,1,24,6.55636016279459,69,5.771947602275759,0.34782608695652173,6.589590282912727e-05,0.9999341040971709,9.627368392861932,0,5.354036099277437,2.0164973437786102,0,59,8.389998483005911,65,6.371803958434612,0.9076923076923077,0.8757786854883229,0.12422131451167708,-1.9530486476793243,0,5.33711367007345,1.1488557462580502,1,87,7.489014149643481,85,6.338991394266486,1.0235294117647058,0.03933078919803745,0.9606692108019625,3.1956224838898906
2,1,10.473956802859902,1.0650708582252264,1,87,12.542557924054563,89,11.475965291727334,0.9775280898876404,0.0013376023750567567,0.9986623976249432,6.615538042261147,1,9.056544261053205,1.7326256213709712,1,45,11.792864095885307,40,10.058141491841525,1.125,0.02824544312449917,0.9717545568755008,3.5381711198170818,0,10.890495074447244,1.6844491427764297,1,14,13.577996457461268,57,11.892541884444654,0.24561403508771928,0.0002138904903952188,0.9997861095096048,8.44983248767635,0,9.99153858795762,1.3334332834929228,1,96,12.342941212002188,89,11.008267832454294,1.0786516853932584,0.06501930829241886,0.9349806917075811,2.6658416020579088
3,1,15.043985278811306,0.9148292392492294,1,28,16.962901026476175,82,16.04639040865004,0.34146341463414637,5.638016942199897e-09,0.9999999943619831,18.993733433619234,1,14.293187255505472,0.6659926930442452,1,15,15.962664779741317,56,15.29500611545518,0.26785714285714285,0.00012884547585356732,0.9998711545241464,8.95676787943536,1,16.077904803212732,1.0800507729873061,0,54,18.180161153431982,31,17.098572408314794,1.7419354838709677,0.9641070928598348,0.03589290714016521,-3.2906626773416896,1,14.843686296604574,1.0321966642513871,1,17,16.878641670569777,82,15.845318687614053,0.2073170731707317,2.1566451839816203e-05,0.9999784335481602,10.744350039550268
4,0,19.463680481538177,1.7326200907118618,0,43,22.21629064809531,7,20.482065030373633,6.142857142857143,0.8657728310495562,0.13422716895044381,-1.8640888991037086,1,18.462734705768526,1.5667083854787052,1,54,21.049052723217756,31,19.4808391565457,1.7419354838709677,0.20249112264798297,0.797508877352017,1.3707969192626748,1,20.680762831121683,1.115631528198719,1,26,22.800072770565748,84,21.68248727126047,0.30952380952380953,0.0005266969641667396,0.9994733030358333,7.548358359649372,1,19.37954359455034,0.9328325539827347,1,45,21.315103253349662,40,20.3811499113217,1.125,0.07896251800912268,0.9210374819908773,2.4565274481890698
5,1,24.716717708855867,0.9333631210029125,1,75,26.653899882454425,70,25.718547235243022,1.0714285714285714,0.006188805782838425,0.9938111942171616,5.078805101918903,0,23.549302006606013,2.984452777542174,0,40,27.537002974189818,15,24.55092096561566,2.6666666666666665,0.294775450799887,0.705224549200113,0.872302378839397,0,25.300606892444193,1.199359527323395,1,7,27.519775953143835,54,26.31877850368619,0.12962962962962962,4.840527854599319e-05,0.999951594721454,9.935853282870644,0,23.816426706966013,0.9654460079036653,1,45,25.80107464455068,42,24.834492046851665,1.0714285714285714,0.06294788797033846,0.9370521120296615,2.7004316874992007
6,0,29.15353998215869,1.315052685327828,1,14,31.4721928560175,7,30.15548723656684,2.0,0.006601908731892037,0.993398091268108,5.0137726722347615,1,30.037637046538293,1.332609977107495,1,69,32.39017626037821,61,31.05585646023974,1.1311475409836065,0.027559680197039582,0.9724403198029604,3.563454863600524,0,30.020539605990052,2.366275872569531,0,45,33.39040342019871,60,31.022606168873608,0.75,0.25080948581464313,0.7491905141853569,1.0942996789606116,1,28.302509505301714,1.5997275658883154,1,53,30.90516842249781,40,29.304277797229588,1.325,0.17479707844491688,0.8252029215550831,1.5520035722315233
7,1,33.97319236025214,0.7491506193764508,1,53,35.741620760876685,55,34.99088199716061,0.9636363636363636,0.0010727766444056375,0.9989272233555944,6.8364316444409114,1,34.89057645667344,2.033310736063868,0,97,37.92739256704226,61,35.89225230459124,1.5901639344262295,0.3935341134021826,0.6064658865978174,0.43248072411271676,0,35.89090159209445,1.245983021799475,0,45,38.14366583246738,42,36.895978913176805,1.0714285714285714,0.5649365578881349,0.43506344211186504,-0.26122157352832404,1,33.40609444491565,2.0336544387973845,0,62,36.44210779154673,43,34.4077505399473,1.441860465116279,0.28899489817760937,0.7110051018223906,0.9002705707444784
8,0,38.24258786952123,1.9665039805695415,1,60,41.22897328482941,40,39.26068283896893,1.5,0.15236171250472286,0.8476382874952771,1.7161966156245636,0,40.42737162904814,1.3823959329165518,1,71,42.813567651901394,64,41.42955552507192,1.109375,0.023503761972161197,0.9764962380278388,3.7268104055434566,0,40.644218522589654,2.366746389772743,1,12,44.03064605081454,3,41.66231270181015,4.0,0.007596857591234851,0.9924031424087651,4.872394731336125,1,38.942687741015106,0.7993533643893898,1,42,40.74501275271177,67,39.94453188451007,0.6268656716417911,0.002263829279705143,0.9977361707202949,6.08843113235997
9,0,43.72953980183229,2.2837326610460877,0,62,47.033032613340765,17,44.74751230236143,3.6470588235294117,0.9831028100396485,0.016897189960351496,-4.063566369146014,0,45.31429969938472,1.9498016005381942,0,12,48.26744469953701,23,46.31587125128135,0.5217391304347826,0.006462424514276699,0.9935375754857233,5.035267323410805,1,46.53156733280048,2.266950873658061,0,45,49.81777781480923,40,47.54926566127688,1.125,0.6015278067311062,0.3984721932688938,-0.41183504602709486,0,43.24586292356253,0.7824558243155479,1,62,45.047545961569995,17,44.263914831448346,3.6470588235294117,0.9064029026473873,0.0935970973526127,-2.2704845402872187
10,0,49.53371409326792,1.1327657103538513,1,45,51.68619491672143,92,50.551728470250964,0.4891304347826087,3.1647987452920745e-08,0.9999999683520125,17.268591246315456,1,50.767827118281275,1.0157277649268508,1,14,52.803606984205544,57,51.78617966733873,0.24561403508771928,0.00010127322319331,0.9998987267768067,9.197587235053856,0,52.31864378787577,2.783857104834169,0,60,56.122280006762594,61,53.33631288213655,0.9836065573770492,0.9240603609308082,0.07593963906919175,-2.4988385932402117,1,47.54895395832136,0.6994563173502684,1,46,49.26740558864549,40,48.56678542215377,1.15,0.0875868553248843,0.9124131446751157,2.3434619636943763
11,1,54.18676736019552,1.683229195419699,0,98,56.88938890444115,73,55.204578280914575,1.3424657534246576,0.42166023088688764,0.5783397691131124,0.3159616821422154,1,55.30453537683934,0.8483310262672603,1,10,57.173182799480855,44,56.32290412345901,0.22727272727272727,0.0003462911897810228,0.999653708810219,7.96788419671906,1,58.62300059758127,1.399777422659099,0,50,61.04233115911484,62,59.640666925814,0.8064516129032258,0.49447568764395555,0.5055243123560444,0.022098148642646767,0,51.768374672625214,1.5994055913761258,0,50,54.387099922169,7,52.78656485164538,7.142857142857143,0.8940902990886115,0.10590970091138854,-2.1332199229015516
12,1,59.39294998254627,1.0992278144694865,1,58,61.50884659634903,58,60.408060662448406,1.0,0.001756619744942567,0.9982433802550574,6.342605751701994,1,59.67350556422025,0.9492947375401855,1,55,61.626140935346484,95,60.675284917932004,0.5789473684210527,7.373915703368095e-05,0.9999262608429663,9.514902854949549,1,63.54238172667101,1.482903744559735,1,42,66.02859371015802,67,64.54386399500072,0.6268656716417911,0.08665841378683392,0.9133415862131661,2.3551358343963518,0,56.88800263591111,1.1824600119143724,1,14,59.07392377546057,57,57.89019838394597,0.24561403508771928,0.00032390268027659985,0.9996760973197234,8.034743501660492
13,1,64.00956916250288,0.932175172958523,1,43,65.9456755858846,97,65.0116768120788,0.44329896907216493,6.2151226387641145e-09,0.9999999937848774,18.89628037325789,1,64.12665530480444,1.032217602711171,1,66,66.16220050444826,59,65.12845638673753,1.11864406779661,0.0255578989618086,0.9744421010381914,3.6409186772747533,0,68.52934551099315,1.3989059189334512,1,14,70.93156045861542,7,69.53111143270507,2.0,0.009152843677813327,0.9908471563221867,4.684495675206944,1,61.57493197079748,1.8667128095403314,1,98,64.46063811797649,73,62.59278239775449,1.3424657534246576,0.3802524794257296,0.6197475205742704,0.4884767185874765
14,1,68.44583558524027,1.7996828453615308,0,82,71.24920395249501,40,69.44770422298461,2.05,0.9707301763864364,0.029269823613563586,-3.501491472977041,1,68.66342637781054,1.8002284243702888,1,32,71.48334502708167,16,69.68146485369653,2.0,0.13057716039393086,0.8694228396060691,1.8958652693285074,0,73.43242524657398,2.6337794358842075,0,43,77.06966106966138,7,74.43415956385434,6.142857142857143,0.917422536345839,0.08257746365416099,-2.407831341130116,0,66.96147130150348,0.9991782736033201,1,58,68.97972706053406,58,67.9793766415678,1.0,0.0398558473567342,0.9601441526432658,3.1818143035492326
15,1,73.74944928567857,0.8657512320205569,1,88,75.61846608994529,96,74.75104612112045,0.9166666666666666,0.00033768281174140213,0.9996623171882586,7.993065790040518,0,73.98328221263364,1.732985126785934,1,14,76.72000500932336,7,74.98487035697326,2.0,0.06021980639289304,0.939780193607107,2.7476447032802027,0,79.57004783395678,1.332887704949826,0,53,81.90614185202867,57,80.57165691675618,0.9298245614035088,0.7480283946987487,0.25197160530125134,-1.0881245342943233,0,71.48093357635662,0.9161364953033626,1,53,73.39992596581578,57,72.48270384361967,0.9298245614035088,0.025952563702257403,0.9740474362977426,3.6251896063676345
16,0,78.11882599024102,1.416153087746352,1,78,80.53887832770124,34,79.12073373887688,2.2941176470588234,0.9808636826318807,0.019136317368119236,-3.936845529844928,0,79.2202981445007,1.2493327422998846,1,22,81.4729138421826,31,80.22187562240288,0.7096774193548387,0.007040203651261456,0.9929597963487385,4.949053078677308,1,84.40678738150746,1.1324484758079052,1,3,86.55886761378497,18,85.42474526492879,0.16666666666666666,0.0002737386999738245,0.9997262613000262,8.20306278014673,0,75.90095984004438,1.2321199434809387,1,24,78.13605340616778,90,76.90275025554001,0.26666666666666666,1.7939123772903187e-05,0.9999820608762271,10.92850860533188
17,0,83.03903951263055,1.0326983914710581,1,37,85.07523577241227,52,84.0406675580889,0.7115384615384616,4.824830641747546e-05,0.9999517516935825,9.939101581480848,0,83.9734037173912,1.6667539752088487,1,53,86.65966934990138,57,84.99126560101286,0.9298245614035088,0.007871628490983551,0.9921283715090164,4.836587540766051,0,89.05981457419693,1.3165440396405756,1,9,91.39604291319847,7,90.07790756877512,1.2857142857142858,0.0027121150762805524,0.9972878849237194,5.907310678023724,0,80.63754397025332,1.1661708652973175,1,40,82.80631868168712,15,81.63917478127405,2.6666666666666665,0.50673662250484,0.49326337749515997,-0.026948120714094775
18,0,87.57554708048701,1.2159192906692624,1,12,89.81126326229423,23,88.59363928437233,0.5217391304347826,0.00010318949903220798,0.9998968105009678,9.178840268834499,0,89.16011932399124,2.750020543113351,0,53,92.91347773605958,15,90.1617497401312,3.533333333333333,0.6413812450532663,0.3586187549467337,-0.5813641859228,1,93.89642335660756,1.5998211954720318,0,94,96.51620657881722,46,94.91430025268346,2.0434782608695654,0.9999934992184962,6.500781503791004e-06,-11.943581656134796,1,85.30724035808817,1.0991116664372385,1,43,87.42584155872464,93,86.32563517894596,0.46236559139784944,0.00010662128591976128,0.9998933787140802,9.146120758897666
19,1,92.31276291329414,0.9664380056783557,1,12,94.29728640662506,9,93.32986114406958,1.3333333333333333,0.002600495240712819,0.9973995047592872,5.949449492494008,1,95.41431684512645,1.0324680712074041,1,19,97.46685755997896,37,96.43273576442152,0.5135135135135135,0.002332434152805818,0.9976675658471942,6.058507697435157,1,99.0162219866179,0.7999921781010926,0,97,100.83626112900674,61,100.03442401718348,1.5901639344262295,0.9999903415682976,9.658431702454136e-06,-11.547669614084061,0,89.92692837072536,1.1988194794394076,1,6,92.12878270726651,26,90.92882189713418,0.23076923076923078,0.0057160110924727725,0.9942839889075272,5.1587516683112
20,1,103.82200417527929,1.5662998924963176,0,97,106.40621335851029,61,104.83780739689246,1.5901639344262295,0.9015813460856948,0.09841865391430513,-2.2149199143304292,1,106.9898410118185,1.2626194269396365,1,46,109.27491964446381,36,108.01068718452007,1.2777777777777777,0.05164403548780716,0.9483559645121928,2.910355212293577,0,110.35870255716145,2.266444010194391,1,7,113.6439700294286,54,111.37583239329979,0.12962962962962962,4.840527854599319e-05,0.999951594721454,9.935853282870644,0,101.63671434298158,1.348133495543152,0,95,104.0037005348131,16,102.6544565227814,5.9375,0.9978142271664118,0.002185772833588209,-6.123597648267168
21,1,108.90641602454707,1.1158851571381092,1,54,111.02618976542726,31,109.90819972380996,1.7419354838709677,0.25670498262689034,0.7432950173731097,1.0631655303227392,0,111.77498206403106,1.932012408040464,1,43,114.71119949920103,7,112.77763055171818,6.142857142857143,0.6213188742552855,0.37868112574471446,-0.4951499411893167,1,116.14476647181436,1.3659080709330738,0,58,118.53058560658246,6,117.16299892263487,9.666666666666666,0.9978744207538469,0.002125579246153043,-6.15158308582971,1,106.50446774251759,1.0153836673125625,1,15,108.52300715539604,42,107.50639919470996,0.35714285714285715,0.002254890965779799,0.9977451090342202,6.092396222340003
22,0,113.5264038881287,1.0824835575185716,1,80,115.62899011420086,60,114.54458932671696,1.3333333333333333,0.1699108520239333,0.8300891479760667,1.586259202577632,0,117.2123301634565,1.3493672707118094,1,55,119.58139358460903,60,118.23021575063467,0.9166666666666666,0.00669322932428551,0.9933067706757145,4.999943082708994,1,121.031200716272,1.5334004145115614,1,43,123.58406222052872,93,122.0489638345316,0.46236559139784944,0.01681463596889554,0.9831853640311045,4.068547976317018,1,111.0243633990176,0.9986583734862506,1,12,113.0259898644872,9,112.02621741965413,1.3333333333333333,0.08262737292769062,0.9173726270723094,2.407172727206928
23,0,118.12944719940424,1.1161850085482001,1,7,120.26539986487478,54,119.14730868814513,0.12962962962962962,2.4724470915060692e-08,0.9999999752755291,17.51547233372632,0,122.08183921361342,1.3161067073233426,1,45,124.40181317087263,42,123.08381846779957,1.0714285714285714,0.021963418042862726,0.9780365819571373,3.796168821087984,1,126.08462360221893,1.232663547154516,0,72,128.3375162370503,51,127.10311679262668,1.411764705882353,0.9979475406685897,0.002052459331410327,-6.186661962494231,1,115.52741524390876,1.0491913896985352,1,19,117.57969995960593,37,116.52926017763093,0.5135135135135135,0.006493920910501716,0.9935060790894983,5.0303736860859045
24,1,122.76529517397285,0.9327069250866771,1,15,124.70143912779167,42,123.76708479924127,0.35714285714285715,2.6259059475730595e-06,0.9999973740940524,12.850081972667521,0,126.90521661983803,1.4150121519342065,1,58,129.33811909984797,58,127.92148640844971,1.0,0.01205099483818306,0.9879490051618169,4.406483866492963,1,130.83769045909867,1.3824919327162206,1,24,133.22363917389885,69,131.83945163991302,0.34782608695652173,0.0009988732248041865,0.9990011267751958,6.907883317035264,0,120.0803277110681,0.9661369691602886,1,22,122.0499984989874,31,121.08335585193709,0.7096774193548387,0.018716342165498445,0.9812836578345016,3.9594645146714287
25,0,127.20188515121117,1.1180342878215015,1,71,129.32258886517957,64,128.20363961625844,1.109375,0.009532679355736984,0.990467320644263,4.643451045051009,1,131.83826606255025,1.0676016174256802,1,15,133.9091348326765,19,132.84057677304372,0.7894736842105263,0.015011544151863121,0.9849884558481369,4.183810405923874,1,135.72433013515547,1.6323374640196562,1,15,138.37679792195559,56,136.74274628888816,0.26785714285714285,0.00029449242208701154,0.999705507577913,8.129962750863468,0,124.55204609921202,1.164131956640631,1,87,126.71924333227798,76,125.55392619315535,1.144736842105263,0.10928616374469169,0.8907138362553083,2.098053406994299
26,1,131.82359468983486,0.9327981839887798,1,55,133.77446690527722,95,132.84001104626805,0.5789473684210527,1.697519940169201e-07,0.999999830248006,15.58892715403861,0,136.4089053021744,1.2656756173819304,1,78,138.69426363846287,65,137.4270512345247,1.2,0.04423204123698754,0.9557679587630125,3.0730657213069534,0,140.8773533771746,1.4496036749333143,1,28,143.33047625375912,18,141.87914418801665,1.5555555555555556,0.11017176850334975,0.8898282314966502,2.0889877660633305,0,129.22026021871716,1.5157289505004883,1,60,131.73872733535245,40,130.22187601728365,1.5,0.3185279132700276,0.6814720867299724,0.7605451807686691
27,1,136.27436023857445,0.7158722784370184,1,54,137.9936683611013,78,137.2761494689621,0.6923076923076923,6.758575150755952e-06,0.9999932414248492,11.904691708043295,0,141.1948870443739,1.7130894702859223,0,78,143.91412049997598,34,142.19947014423087,2.2941176470588234,0.7162424698771853,0.2837575301228147,-0.9258986483919602,0,145.83105659810826,1.3663134034723043,0,51,148.2173221516423,7,146.84931117203087,7.285714285714286,0.9874367349531612,0.012563265046838789,-4.364335345636896,1,134.24015350500122,0.8483796184882522,1,32,136.09144985768944,16,135.24192219227552,2.0,0.26903425692450145,0.7309657430754986,0.9995278748985176
28,1,140.49453393928707,0.8820956870913506,1,53,142.3964328384027,40,141.51250446448103,1.325,0.03304217519444508,0.9669578248055549,3.3763700983614346,1,146.41516227507964,3.3348728851415217,0,41,150.7694342257455,7,147.4328562580049,5.857142857142857,0.5674633078122091,0.43253669218779084,-0.2715089312259009,1,150.71750427456573,1.3995075961574912,0,88,153.1195446057245,96,151.71939108520746,0.9166666666666666,0.9987838725715519,0.0012161274284480709,-6.710866840285448,1,138.59613290801644,0.8824749453924596,1,54,140.4944545319304,78,139.61083904607221,0.6923076923076923,0.002298680626536931,0.9977013193734631,6.073118634629356
29,1,144.89974186755717,0.7822713307105005,1,43,146.6995234778151,93,145.915368496906,0.46236559139784944,1.563744755905816e-08,0.9999999843625524,17.973597299059005,0,153.2699304218404,1.3828395865857601,1,71,155.67252107243985,69,154.28798628039658,1.0289855072463767,0.01247094157273465,0.9875290584272653,4.371804658720702,0,155.62068198574707,1.265285692177713,0,86,157.89031848218292,59,156.62322064628825,1.4576271186440677,0.9998775995471736,0.00012240045282645084,-9.008090080386012,1,142.9958131457679,0.6297340136952698,1,15,144.63117084978148,56,144.0002484936267,0.26785714285714285,0.00040967939775449214,0.9995903206022455,7.799725897510604
30,1,149.2004368584603,1.082566125318408,1,72,151.30277459137142,51,150.21838368009776,1.411764705882353,0.1966186569308942,0.8033813430691058,1.4075633980577689,0,158.17275889916345,1.3658116762526333,1,24,160.5421565421857,90,159.17474131425843,0.26666666666666666,4.3892655503530165e-06,0.9999956107344496,12.336344256201276,0,160.39055472891778,1.649835892021656,0,60,163.04381540231407,40,161.3923451444134,1.5,0.9833782221407354,0.016621777859264535,-4.080280054477303,1,147.1313612689264,0.7161116851493716,1,24,148.85065319389105,69,148.13339583203197,0.34782608695652173,0.00023223834653973707,0.9997677616534603,8.367514092573973
31,0,153.80319256568328,0.9155691876076162,1,58,155.72248638654128,58,154.8053104863502,1.0,0.001756619744942567,0.9982433802550574,6.342605751701994,0,163.04298893501982,1.1324429456144571,1,45,165.17870021844283,60,164.04462606692687,0.75,0.002197690502742544,0.9978023094972575,6.118148132526012,1,165.54429777152836,2.2668651454150677,1,55,168.83081758627668,95,166.56221851939335,0.5789473684210527,0.21680125304135056,0.7831987469586494,1.2844054420556261,0,151.35142948804423,0.8997284350916743,1,60,153.2701437547803,61,152.36924791522324,0.9836065573770492,0.03483959800786529,0.9651604019921347,3.321539693525042
32,0,158.2244482585229,1.1015811911784112,1,28,160.34394743200392,41,159.2410123674199,0.6829268292682927,7.218313954671096e-05,0.9999278168604533,9.53623187787544,1,167.67891157604754,0.9323616418987513,1,15,169.6141883712262,42,168.6808094480075,0.35714285714285715,0.0007836344475821155,0.9992163655524179,7.150783970539167,0,171.3312912643887,1.082749828696251,0,38,173.4337024781853,43,172.34926218446344,0.8837209302325582,0.17857584919526281,0.8214241508047372,1.526026166664493,1,155.772555205971,1.199623032938689,1,66,157.99006501119584,59,156.78934687003493,1.11864406779661,0.08323047429215102,0.916769525707849,2.399242547246751
33,0,162.8437787410803,1.0818384229205549,1,87,164.9439914417453,76,163.86106739146635,1.144736842105263,0.026165030813238177,0.9738349691867618,3.616818035658918,0,172.11551182484254,1.1991580463945866,1,38,174.31780744437128,43,173.11715764831752,0.8837209302325582,0.008942909069171945,0.991057090930828,4.707911206595389,0,175.9346277108416,1.0323890587314963,1,28,177.98682590806857,41,176.9524666806683,0.6829268292682927,0.02143540720168724,0.9785645927983128,3.8210426997991918,1,160.49111468810588,0.7825158736668527,1,14,162.29269856540486,8,161.5090291146189,1.75,0.1131371409597971,0.8868628590402029,2.0590896385624755
34,1,167.44570798054338,1.14963322551921,1,66,169.61502550542355,59,168.4635690744035,1.11864406779661,0.009230804519568814,0.9907691954804312,4.67593539831274,0,176.8185624051839,1.9333168985322118,0,50,179.75561183830723,7,177.8204918820411,7.142857142857143,0.7820909861014508,0.21790901389854925,-1.2778934760612688,0,180.4871403761208,1.9667331157252192,1,15,183.45696128718555,42,181.48871429869905,0.35714285714285715,0.0008447131012181419,0.9991552868987819,7.075668443372087,0,164.79340335400775,1.6829009000211954,0,51,167.47935767890885,7,165.79527712753043,7.285714285714286,0.9043296400061995,0.0956703599938005,-2.2462854073962446
35,1,172.11544387461618,0.7156605254858732,1,42,173.85102415597066,67,173.13333854824305,0.6268656716417911,4.963845131378264e-06,0.9999950361548686,12.213324925603626,1,182.25575603591278,1.9826892260462046,1,72,185.24237730214372,51,183.25805173395202,1.411764705882353,0.12586720924315253,0.8741327907568475,1.9380048423009157,1,185.95784543361515,1.4002277916297317,0,56,188.3776314998977,46,186.97560776164755,1.2173913043478262,0.9340225543321763,0.06597744566782372,-2.6501876347276028,1,169.98060133028775,0.846747622359544,1,33,171.84923571534455,25,171.00132226850837,1.32,0.12088973681394188,0.8791102631860581,1.9840314672994124
36,0,176.3511632173322,0.9474758775904775,1,60,178.30388945294544,61,177.35468518408015,0.9836065573770492,0.0014134846157860537,0.998586515384214,6.560282780135915,1,187.74295093026012,1.3997817682102323,1,16,190.1624493924901,10,188.76089182589203,1.6,0.05161245289067784,0.9483875471093222,2.9110002452231325,1,190.8773841918446,1.3994029047898948,1,19,193.2804876314476,37,191.8792923358269,0.5135135135135135,0.003266114523137187,0.9967338854768628,5.720882759871777,0,174.35038534225896,0.8655540961772203,1,71,176.23533257795498,69,175.3686766573228,1.0289855072463767,0.0450693493170109,0.9549306506829891,3.0534363213239355
37,0,180.80406248942018,0.9826299673877656,1,9,182.79062923742458,7,181.80608559586108,1.2857142857142858,0.0020261070497485933,0.9979738929502514,6.199610874189652,0,192.66261847876012,1.6831659856252372,1,12,195.34945102361962,3,193.66412721574306,4.0,0.07905253872858631,0.9209474612714137,2.4552903107018222,1,195.78103242022917,1.6000207010656595,0,82,198.4005082855001,40,196.79879909427837,2.05,0.9999221513435917,7.784865640829656e-05,-9.460666066870942,1,178.73637000797316,0.7658245549537241,1,75,180.5212850854732,70,179.7544957920909,1.0714285714285714,0.061622427919860945,0.938377572080139,2.7231265030002287
38,1,185.29103338439018,0.748846422880888,1,50,187.05969487084076,62,186.30926662497222,0.8064516129032258,0.00010487568779393719,0.9998951243122061,9.162629953784915,1,197.8493483075872,1.2156672421842813,1,75,200.0683909491636,70,198.85118968598545,1.0714285714285714,0.017064864502943977,0.982935135497056,4.053521489429325,1,200.90076507488266,1.0657677450217307,0,75,202.97053004521877,70,201.90295529179275,1.0714285714285714,0.995887171488636,0.004112828511363945,-5.4895229754459525,1,183.02238374948502,1.9163806424476206,0,54,185.94194265641272,31,184.02425317745656,1.7419354838709677,0.415476966339936,0.584523033660064,0.3413690108412427
39,1,189.56056795548648,0.7984790946356952,1,15,191.3788830526173,19,190.57883556652814,0.7894736842105263,0.0005286504820292137,0.9994713495179708,7.54465426870757,1,202.569518847391,0.7651948281563818,1,46,204.35450306069106,40,203.5877177179791,1.15,0.03148201522555749,0.9685179847744425,3.4263506148353753,0,205.4714687098749,1.5157139380462468,0,68,207.9903842206113,63,206.47303670598194,1.0793650793650793,0.9866753995546521,0.013324600445347895,-4.304729125248219,1,188.4429413699545,0.6819373462349176,1,46,190.1446629660204,36,189.4616060173139,1.2777777777777777,0.13521047852330004,0.8647895214767,1.855653485074116
40,0,200.9020592942834,1.7494639023207128,0,51,203.67050665756688,7,201.9194222157821,7.285714285714286,0.977277833107665,0.022722166892334972,-3.7614300222315658,1,213.87752680899575,0.8489311235025525,1,56,215.74634805787355,46,214.8954372848384,1.2173913043478262,0.043850059404970554,0.9561499405950294,3.082138668830995,0,217.51331394398585,1.3470265353098512,0,87,219.8813284789212,85,218.5327825397253,1.0235294117647058,0.9993213173048073,0.0006786826951927006,-7.294677938465341,1,199.65125455521047,0.8980051800608635,1,74,201.56846127007157,60,200.66927880886942,1.2333333333333334,0.16566452070913718,0.8343354792908628,1.6166707909442677
41,0,206.17176532140002,1.2489151628687978,1,24,208.4405058203265,90,207.19005070999265,0.26666666666666666,3.448987762055822e-10,0.9999999996551012,21.787770143905828,1,218.24613788584247,0.8322006943635643,1,12,220.0983855444938,9,219.26450031111017,1.3333333333333333,0.038078485846704035,0.961921514153296,3.2292834145145153,0,222.38223672378808,3.5342063386924565,0,56,226.93649318767712,59,223.40036329813302,0.9491525423728814,0.8417357551912223,0.15826424480877763,-1.6712000634855926,1,204.0695133167319,1.2648120140656829,0,97,206.33859791373834,61,205.0726872351952,1.5901639344262295,0.7030539654178525,0.2969460345821475,-0.8618832327786144
42,0,210.94159263232723,0.9160736808553338,1,35,212.87621836783364,62,211.95927278790623,0.5645161290322581,2.9902679776760976e-06,0.9999970097320223,12.720144559664444,0,222.59934514714405,2.032916465308517,1,60,225.63614624505863,70,223.60122445132583,0.8571428571428571,0.0032338943114500474,0.99676610568855,5.730829064154896,0,229.43728409940377,1.6147943949326873,0,96,232.05505567230284,89,230.43921239115298,1.0786516853932584,0.9998984154994601,0.000101584500539902,-9.194517998537926,0,208.84018408274278,1.0321808620356023,1,9,210.89174386160448,7,209.85834700241685,1.2857142857142858,0.07568555902939078,0.9243144409706092,2.50246494138088
43,1,215.3788147070445,0.9647629479877651,1,26,217.36357800243422,84,216.39714671298862,0.30952380952380953,2.2119082121463407e-09,0.9999999977880918,19.929410247348418,1,228.13673054007813,1.2662942823953927,1,53,230.4225005293265,40,229.1546161272563,1.325,0.06638412861711973,0.9336158713828803,2.6436070799634206,0,234.55644826125354,1.0982437175698578,0,62,236.65936870872974,16,235.5594791676849,3.875,0.9983022762438564,0.0016977237561436702,-6.3767677255892465,0,213.39245813153684,0.8658176017925143,1,28,215.26160609629005,41,214.3945420770906,0.6829268292682927,0.010980502950370896,0.9890194970496291,4.500592804253925
44,0,219.86425711214542,0.8305003526620567,1,14,221.7162321791984,57,220.88393113948405,0.24561403508771928,6.510195715847544e-08,0.9999999348980428,16.547311159203566,0,232.92304255254567,1.3156322394497693,1,28,235.25912827486172,41,233.94133544759825,0.6829268292682927,0.0038031373183922135,0.9961968626816078,5.568118555141542,0,239.1597135970369,1.9163134824484587,0,53,242.07966519379988,15,240.16179754259065,3.533333333333333,0.9859503353559503,0.014049664644049645,-4.251007456768505,0,217.76221607020125,1.0488998349756002,1,37,219.8144810325466,52,218.76437507709488,0.7115384615384616,0.007966775562374573,0.9920332244376254,4.824476760007407
45,1,224.21676827641204,0.7989788469858468,1,25,226.01941802818328,37,225.21926150517538,0.6756756756756757,8.915439834067396e-05,0.9999108456016593,9.325051720092407,0,237.75931237312034,1.7514664656482637,1,28,240.51371848583221,18,238.76126081263646,1.5555555555555556,0.06906476704411357,0.9309352329558864,2.601144990526233,1,244.58053946355358,1.231351550668478,1,42,246.832788544707,39,245.5998093439266,1.0769230769230769,0.43867352773794543,0.5613264722620546,0.24654721941356164,1,222.31566779501736,0.7160950927063823,1,58,224.05074555892497,58,223.33340562973171,1.0,0.0398558473567342,0.9601441526432658,3.1818143035492326
46,1,228.5194990155287,1.0987067287787795,1,56,230.62229067320004,46,229.52167659066617,1.2173913043478262,0.017142695267458596,0.9828573047325414,4.048891795620301,0,243.01398870768026,1.1989340470172465,1,68,245.23196903057396,63,244.0312903947197,1.0793650793650793,0.019203488185350337,0.9807965118146497,3.933273069853135,1,249.33373827068135,1.2328539662994444,0,98,251.58628443768248,73,250.3516696849838,1.3424657534246576,0.9999813295864518,1.8670413548216948e-05,-10.888551779654783,1,226.551843828056,0.6163019463419914,1,52,228.18658681726083,68,227.56915578665212,0.7647058823529411,0.0061831295787980745,0.9938168704212019,5.07972840706804
47,0,233.12333363387734,1.3994590039364994,1,96,235.54242281336337,89,234.1410604068078,1.0786516853932584,0.011195006802668384,0.9888049931973316,4.481029278742347,1,247.73272359650582,1.0828821738250554,1,6,249.83568236464635,8,248.75067199859768,0.75,0.022506057630705012,0.977493942369295,3.7712075937693137,1,254.0873044845648,0.9991913102567196,1,15,256.105338614434,19,255.1044702711515,0.7894736842105263,0.004755845906154299,0.9952441540938457,5.343613509636245,0,230.68785338196903,2.1165136992931366,1,80,233.80708154384047,60,231.68939767451957,1.3333333333333333,0.2812483332116804,0.7187516667883196,0.9382778839761079
48,1,238.0424682451412,0.8994025099091232,1,16,239.94566215388477,10,239.0443274010904,1.6,0.005317344615421549,0.9946826553845785,5.231449700668719,0,252.33578152488917,1.1991544906049967,1,14,254.5547024877742,57,253.35385121079162,0.24561403508771928,0.00010127322319331,0.9998987267768067,9.197587235053856,0,258.60620932886377,1.9651106013916433,0,55,261.5925931632519,60,259.6255116038956,0.9166666666666666,0.7943470352283506,0.20565296477164946,-1.3513303266728602,1,236.30807156627998,0.9489980465732515,1,40,238.27650383859873,93,237.32625226397067,0.43010752688172044,7.595320215403323e-05,0.999924046797846,9.485317212381085
49,0,242.44592486927286,1.06624695379287,1,45,244.5311695067212,60,243.46329608699307,0.75,5.0822192438571e-05,0.9999491778075614,9.887126616264043,1,257.0551785356365,0.8648789376020432,1,74,258.92478832649067,60,258.05809843027964,1.2333333333333334,0.05338546329938476,0.9466145367006152,2.8753534880565415,0,264.0935108894482,2.1331414128653705,1,37,267.24530825810507,52,265.111416624859,0.7115384615384616,0.07955930937776401,0.920440690622236,2.4483497934723064,1,240.77795805735514,1.0994221842847764,0,41,242.89654464041814,7,241.796007595025,5.857142857142857,0.7531773314747825,0.2468226685252175,-1.115630562449311
50,1,247.03173641860485,0.8492775917984545,1,69,248.8846774091944,61,248.03371014259756,1.1311475409836065,0.011823479348637478,0.9881765206513625,4.4257740166170745,0,261.42515059700236,1.3831228450872004,1,6,263.81199530977756,26,262.4268572595902,0.23076923076923078,0.0022531127822906782,0.9977468872177093,6.093186905207354,0,269.74710301915184,2.116721501108259,0,58,272.8668641182594,58,270.74886973109096,1.0,0.9034040246460588,0.09659597535394115,-2.235632800861673,0,245.39776182267815,0.9654835388064384,1,56,247.38257173541933,59,246.4158955081366,0.9491525423728814,0.028473425960707677,0.9715265740392923,3.529897392193688
51,0,251.3852399759926,1.4315928537398577,0,50,253.83793144626543,7,252.40484960842878,7.142857142857143,0.9713702796252754,0.028629720374724534,-3.5242623818405834,1,266.3120786678046,0.998109239153564,1,14,268.31428310694173,8,267.3145398963243,1.75,0.053320306783186666,0.9466796932168133,2.876643553915652,0,275.36743379570544,1.2491032117977738,1,35,277.6192411989905,62,276.36906737228855,0.5645161290322581,0.024350686800886145,0.9756493131991139,3.6905431570928537,0,249.88361627608538,1.3991370289586484,1,45,252.28608011221513,60,250.88579661631957,0.75,0.007424116039918882,0.9925758839600811,4.895569841290387
52,0,256.3385836915113,1.416538666933775,1,12,258.7746423119679,3,257.3561615264043,4.0,0.010298298751055812,0.9897017012489442,4.565424874062191,1,270.81498038908467,0.8995791021734476,1,28,272.7348328260705,82,271.83329698769376,0.34146341463414637,1.926750231995289e-05,0.99998073249768,10.857071431198758,0,280.12120544118807,1.3149258708581328,0,62,282.456179857254,17,281.14013280393556,3.6470588235294117,0.9981697321088168,0.001830267891183235,-6.301460989339862,1,254.78722776379436,0.9652962796390057,0,82,256.772132886108,40,255.80565734952688,2.05,0.8490148869693509,0.1509851130306491,-1.7268954781145864
53,1,261.27509781718254,1.24913758225739,1,62,263.54415910551324,43,262.29336503334343,1.441860465116279,0.12632244587792174,0.8736775541220783,1.9338736440585065,1,275.2344918884337,0.732072536367923,1,53,276.9699935526587,55,276.2363688223995,0.9636363636363636,0.010164979635154947,0.989835020364845,4.578589839495157,0,284.957163953688,1.9993848903104663,0,71,287.9596081948839,64,285.9589966405183,1.109375,0.993057394951988,0.006942605048012024,-4.963111390688876,1,259.27316755009815,0.9153598053380847,1,25,261.1918833972886,37,260.2753553967923,0.6756756756756757,0.012717455333180028,0.98728254466682,4.351980779117749
54,1,266.04490221478045,0.7490317062474787,1,14,267.8141096755862,8,267.0631433567032,1.75,0.005249059683266943,0.9947509403167331,5.244443441973407,0,279.47078564949334,1.9498604643158615,1,51,282.4403892769478,7,280.4888727176003,7.285714285714286,0.8005465779284306,0.19945342207156933,-1.3897139810429766,1,290.460746364668,2.2498127412982285,0,62,293.7136753452942,43,291.46269835997373,1.441860465116279,0.9871754419614831,0.012824558038516926,-4.343485846855842,1,263.6946425018832,0.7491071629337966,1,26,265.4612350552343,84,264.71101737674326,0.30952380952380953,4.674928161896297e-05,0.999953250718381,9.970664918412536
55,1,270.3138821204193,0.7818260975182056,1,42,272.09959443099797,39,271.31609446089715,1.0769230769230769,0.00315834628055367,0.9968416537194463,5.754543372923644,1,284.94088112795725,0.8487094943411648,1,88,286.7932378235273,96,285.9425996420905,0.9166666666666666,0.0025891709014462805,0.9974108290985537,5.953825041188778,1,296.2149178115651,1.1823944319039583,1,25,298.41693333303556,37,297.2332241386175,0.6756756756756757,0.014015113318287864,0.9859848866817121,4.253504756491701,0,267.96233490435407,0.7657957156188786,1,45,269.731288340874,92,268.96430704789236,0.4891304347826087,0.00015100634713860472,0.9998489936528614,8.798037670252516
56,1,274.60051571251824,0.8992764856666327,1,52,276.502994955983,68,275.6021271655336,0.7647058823529411,4.223076715403895e-05,0.999957769232846,10.072319291433146,1,289.2938588587567,0.8824540069326758,1,58,291.1797408084385,58,290.2955019166693,1.0,0.01205099483818306,0.9879490051618169,4.406483866492963,1,300.91798379970714,1.516676306258887,1,40,303.4538679611869,93,301.93590770754963,0.43010752688172044,0.008144480616698924,0.9918555193833011,4.802236978007078,0,272.23229653574526,1.9322818396613002,1,71,275.1671403446235,64,273.2339301123284,1.109375,0.07990226314311288,0.9200977368568871,2.443675723048608
57,0,279.0033133751713,1.1994002186693251,1,56,281.20619881991297,59,280.00487860571593,0.9491525423728814,0.0008687276331611482,0.9991312723668389,7.047611802222569,0,293.6799197709188,2.100458823610097,0,62,296.80048995418474,16,294.69801316037774,3.875,0.8113413977420433,0.18865860225795675,-1.45874988012272,1,305.95486232917756,1.8325195079669356,1,6,308.790134225972,8,306.9564208444208,0.75,0.0012095381503108849,0.9987904618496891,6.716306415963155,0,277.6699662148021,0.9308521142229438,1,15,279.6042328393087,42,278.67223544372246,0.35714285714285715,0.002254890965779799,0.9977451090342202,6.092396222340003
58,0,283.70641412818804,1.4657628466375172,0,62,286.1750869927928,17,284.7082973830402,3.6470588235294117,0.9831028100396485,0.016897189960351496,-4.063566369146014,1,299.3005942502059,2.19987863721326,1,62,302.5042516440153,43,300.30229261657223,1.441860465116279,0.11668343252840863,0.8833165674715914,2.0242190870343997,1,311.29163703741506,1.8166222618892789,1,16,314.12757421610877,10,312.30982405599207,1.6,0.011875985404247724,0.9881240145957523,4.4212898828284155,1,282.1056914040819,1.1155193308368325,1,10,284.2404964179732,44,283.1238310150802,0.22727272727272727,0.0010051348930844028,0.9989948651069156,6.90162788412362
59,0,288.67648274218664,0.8995490777306259,1,7,290.5956134032458,54,289.6944718356244,0.12962962962962962,2.4724470915060692e-08,0.9999999752755291,17.51547233372632,1,305.0043073478155,0.7986647733487189,1,25,306.82313918462023,37,306.0227148104459,0.6756756756756757,0.004552188154881898,0.9954478118451181,5.387584667544853,0,316.6280471039936,1.3151111542247236,1,6,318.94723805133253,26,317.6310080848634,0.23076923076923078,0.00031211469302272477,0.9996878853069773,8.071827668452247,1,286.74136199615896,0.9658770188689232,1,50,288.71051643928513,62,287.74338154681027,0.8064516129032258,0.010209782820617908,0.9897902171793821,4.574146658127048
60,0,300.1190942362882,1.6660345694981515,1,60,302.8038025391288,70,301.1361189861782,0.8571428571428571,0.00017750758259393873,0.9998224924174061,8.636319707783207,0,316.3466804623604,1.7339103589765728,1,41,319.0989765552804,22,317.364154396113,1.8636363636363635,0.159296227801902,0.840703772198098,1.6634738283058321,1,328.45405245479196,1.5664136693812907,0,87,331.03896129038185,89,329.47143275942653,0.9775280898876404,0.9990829682348046,0.0009170317651953678,-6.9934509934678,0,298.21754417568445,1.4319286551326513,0,78,300.66821925574914,34,299.23501613456756,2.2941176470588234,0.8814617857780753,0.11853821422192463,-2.006346258066204
61,0,305.3042517234571,1.1178778437897563,1,38,307.4413943118416,43,306.3223083722405,0.8837209302325582,0.0004874199178059868,0.999512580082194,7.6258970134420565,1,321.60085111903027,1.0310790375806391,1,50,323.65133949322626,62,322.6186288543977,0.8064516129032258,0.0029675597982722346,0.9970324402017278,5.817043308888445,1,333.5399987199344,1.0824902737513185,0,46,335.64167314581573,40,334.5580249489285,1.15,0.6584507960356458,0.34154920396435423,-0.6563980465904412,0,303.16911722905934,0.697834197897464,1,68,304.8712880089879,63,304.17227652994916,1.0793650793650793,0.06531913913790444,0.9346808608620956,2.660920056877624
62,0,309.9409798933193,1.2668240587227046,1,15,312.2269395114854,42,310.95837600016966,0.35714285714285715,2.6259059475730595e-06,0.9999973740940524,12.850081972667521,1,326.15188309689984,0.7995730182155967,1,37,327.97089429106563,54,327.16967070894316,0.6851851851851852,0.0019485504925860209,0.998051449507414,6.238719068567066,0,338.14299896964803,1.2824929603375494,1,24,340.4446938596666,90,339.16112198866904,0.26666666666666666,0.00020560978991424061,0.9997943902100858,8.48932477827198,0,307.3719469704665,1.2840846595354378,1,59,309.6585094514303,65,308.3736706203781,0.9076923076923077,0.019409093609823236,0.9805909063901768,3.922413656639999
63,1,314.72722435044125,0.9491145899519324,1,17,316.69623775733635,82,315.74524899898097,0.2073170731707317,4.150684240755709e-10,0.9999999995849316,21.602577731583015,0,330.47166624013335,2.833825184032321,1,62,334.3250805134885,17,331.4895494566299,3.6470588235294117,0.7907994491628442,0.20920055083715586,-1.3297510294872708,0,342.9458948443644,2.1497236941941082,0,40,346.09865497611463,15,343.94783893879503,2.6666666666666665,0.7449178795932798,0.25508212040672024,-1.0716884494449914,1,312.16092406306416,0.6632351689040661,1,55,313.82711586682126,95,313.16277966368943,0.5789473684210527,0.00032439014120733134,0.9996756098587927,8.03323918427062
64,1,319.1970397308469,1.4997961483895779,0,94,321.716956325341,46,320.21488423179835,2.0434782608695654,0.9930599257647084,0.0069400742352916205,-4.9634785392370135,0,336.8255119198002,1.215833562426269,1,45,339.04539999132976,92,337.8273153724149,0.4891304347826087,3.5494001503488803e-05,0.9999645059984965,10.246111352861515,1,348.60040470026433,2.2486852374859154,1,28,351.86918589053676,82,349.61928781634197,0.34146341463414637,0.0009981394878996186,0.9990018605121004,6.908618886024038,0,316.32831053063273,1.0991286542266607,1,78,318.430245696567,65,317.3299464774318,1.2,0.14502458290751774,0.8549754170924823,1.7741694512408206
65,1,324.2174896574579,0.6992532559670508,1,10,325.93622217606753,44,325.2351709981449,0.22727272727272727,5.057303473776642e-07,0.9999994942696526,14.497261714296465,0,341.54549243533984,1.5323606147430837,1,9,344.0812217332423,7,342.54710072791204,1.2857142857142858,0.03534044361527433,0.9646595563847257,3.306747228188737,0,354.3703410481103,1.7998195360414684,0,71,357.1728758374229,69,355.3719509211369,1.0289855072463767,0.9899150778693003,0.010084922130699695,-4.586577709441951,1,320.9311310276389,0.9320791731588542,1,53,322.86618974944577,55,321.9329957147129,0.9636363636363636,0.03288549038543642,0.9671145096145636,3.3812853670575014
66,0,328.43659313814715,1.2471061800606549,1,53,330.7064070170745,57,329.45711615122855,0.9298245614035088,0.0006765866724908198,0.9993234133275092,7.2977731839181645,0,346.5826107673347,1.1495850281789899,1,54,348.7519148597494,80,347.60010366374627,0.675,0.0004563743788920105,0.999543625621108,7.691740600399739,0,359.67397963721305,1.266160356812179,0,95,361.95951061462983,16,360.6921291248873,5.9375,0.999999468385522,5.316144779579372e-07,-14.447346744179704,1,325.367726536002,0.8156192023307085,1,88,327.2026349767111,96,326.3858938016929,0.9166666666666666,0.011843869553161523,0.9881561304468385,4.424030315600921
67,0,333.2069367938675,1.7826095027849078,0,86,336.00909153418615,59,334.2245975914411,1.4576271186440677,0.5168479715404728,0.48315202845952715,-0.06741740950689752,0,351.2519630570896,2.283181946258992,1,80,354.5388056365773,60,352.25385460816324,1.3333333333333333,0.09935333743279706,0.9006466625672029,2.2044304581662946,1,364.4607068588957,1.0498657585121691,1,54,366.52970936195925,78,365.4786232607439,0.6923076923076923,0.4381302240261107,0.5618697759738893,0.24875392637942184,0,329.70420297281817,0.7816917770542204,1,7,331.50571336923167,54,330.72290712594986,0.12962962962962962,0.00021165410188772604,0.9997883458981123,8.460345534158206
68,1,338.5101265935227,0.8994819172658026,1,37,340.42897439096123,54,339.5275993421674,0.6851851851851852,3.0418075437244063e-05,0.9999695819245628,10.400443120959237,0,357.03895220393315,1.8494127029553056,1,15,359.9086224390194,42,358.05741734523326,0.35714285714285715,0.0007836344475821155,0.9992163655524179,7.150783970539167,1,369.0305622979067,1.5824736808426678,0,53,371.63206961285323,40,370.0484925271012,1.325,0.9143809168621028,0.08561908313789723,-2.368339050533873,1,334.0067010214552,0.5477446769364178,1,3,335.55849388614297,18,335.00960313808173,0.16666666666666666,0.010746918163764607,0.9892530818362354,4.522331164554767
69,0,342.93015483254567,2.7670847992412746,1,41,346.7160370191559,22,343.9472898039967,1.8636363636363635,0.11201640571432558,0.8879835942856744,2.070307927757788,0,362.409094536677,1.4159843968227506,0,95,364.8290884052403,16,363.41122509911656,5.9375,0.9942273034473633,0.005772696552636654,-5.148826544519068,0,374.1340492628515,1.349811318796128,0,50,376.50234824139625,7,375.1513746539131,7.142857142857143,0.9840115704030605,0.01598842959693944,-4.119772345073546,1,338.0601610429585,0.5655105607584119,1,42,339.64506553299725,39,339.0785147771239,1.0769230769230769,0.06453887814505566,0.9354611218549443,2.6737717820180857
70,0,349.2168915355578,1.1492002387531102,0,62,351.3688564100303,16,350.2186155808158,3.875,0.9865367541498068,0.013463245850193185,-4.294237138884649,1,367.32900623232126,1.2158458097837865,1,3,369.54851109487936,18,368.33102973364294,0.16666666666666666,0.004511258669880114,0.9954887413301199,5.396657615068933,0,379.00370132457465,2.016107023693621,0,80,382.0390399075113,60,380.0217868126929,1.3333333333333333,0.9994277746810264,0.0005722253189735557,-7.4654053407565435,0,342.14566365489736,1.132129266858101,0,62,344.28068239660934,17,343.147298021242,3.6470588235294117,0.9064029026473873,0.0935970973526127,-2.2704845402872187
71,1,353.8701494438574,0.6821273709647357,1,19,355.55599236115813,37,354.8718561064452,0.5135135135135135,2.148664348111673e-05,0.9999785133565189,10.748057562438213,0,372.049317413941,1.4827488805167377,1,86,374.5354981874116,59,373.050894101616,1.4576271186440677,0.1971016428768555,0.8028983571231445,1.4045085776406019,0,384.5405743238516,1.749090965371579,0,87,387.3092962545343,76,385.5590351196006,1.144736842105263,0.9996552818193111,0.0003447181806888889,-7.972438564709808,1,346.78303340356797,0.7324055726639926,1,56,348.5340696480125,46,347.8002947946079,1.2173913043478262,0.12515214471503422,0.8748478552849658,1.9445198366778356
72,0,358.0558295962401,0.8494150727055967,1,6,359.9084513778798,26,359.057548110839,0.23076923076923078,1.2448992407376736e-05,0.9999875510075926,11.29385842039316,1,377.0357676190324,1.1483062161132693,1,54,379.18824725737795,78,378.03794637927786,0.6923076923076923,0.0005906223798289867,0.999409377620171,7.433742899128556,1,389.81043323967606,1.4999691853299737,1,33,392.3131137271412,25,390.81196410022676,1.32,0.19887827988647355,0.8011217201135264,1.3933199169922927,1,351.0351485586725,0.5158206047490239,1,28,352.57010353775695,82,352.0530768125318,0.34146341463414637,7.479911444507881e-05,0.9999252008855549,9.50062971011142
73,1,362.40925848670304,1.0489314394071698,1,46,364.4620528309606,36,363.41108998889104,1.2777777777777777,0.01608170606736703,0.983918293932633,4.113860502143776,1,381.6886478490196,1.1656892863102257,1,33,383.8572230543941,25,382.6907578688115,1.32,0.04997172413458706,0.9500282758654129,2.9450344200658387,1,394.8139113546349,1.0828146184794605,1,41,396.91585955768824,7,395.83192217629403,5.857142857142857,0.8719939927081783,0.12800600729182168,-1.9187053400034202,0,355.0710212639533,0.8996391515247524,1,28,356.98951311130077,18,356.0887551479973,1.5555555555555556,0.15502848373118538,0.8449715162688146,1.695694052187422
74,0,366.96183633757755,1.4161459766328335,0,53,369.38169628055766,15,367.9638938140124,3.533333333333333,0.9160922543793278,0.08390774562067214,-2.390399145104447,1,386.35877287806943,0.865925058722496,1,26,388.22805200284347,84,387.3602638375014,0.30952380952380953,1.1902976709499136e-05,0.9999880970232905,11.338710142424558,1,399.4171593077481,2.0501707452349365,0,69,402.48660822957754,61,400.43522346252576,1.1311475409836065,0.9909858581065973,0.009014141893402605,-4.6999055983103375,1,359.49073503445834,0.7164818570017815,1,69,361.2099131816067,61,360.49248001817614,1.1311475409836065,0.09079632414909067,0.9092036758509093,2.3039503330728004
75,0,371.88190803304315,1.6330785979516804,1,59,374.5347617943771,65,372.89998917561024,0.9076923076923077,0.00044360448042901623,0.999556395519571,7.720133499481482,1,390.7280290890485,1.7663804055191576,0,82,393.4983225716278,40,391.7299747634679,2.05,0.6454704118005592,0.35452958819944075,-0.599187564506096,0,404.98741770908237,1.93313675140962,0,60,407.9234083793126,70,405.9890568163246,0.8571428571428571,0.8606954242598843,0.13930457574011568,-1.8210779669957429,1,363.7122633983381,1.2482992634177208,1,14,365.97878523543477,57,364.72922098776326,0.24561403508771928,0.00032390268027659985,0.9996760973197234,8.034743501660492
76,0,377.03552465653047,1.282752119936049,0,40,379.3213712880388,15,378.0371116157621,2.6666666666666665,0.3334148940060254,0.6665851059939746,0.6927801799783222,1,396.001218367368,0.715991981793195,1,42,397.73411658080295,39,397.01651354087517,1.0769230769230769,0.023098147168936545,0.9769018528310635,3.74463378412675,1,410.42523435037583,1.4665095112286508,1,14,412.9098514732905,57,411.442254754249,0.24561403508771928,0.0002138904903952188,0.9997861095096048,8.44983248767635,0,368.47984715923667,0.7984826508909464,1,77,370.2980765281245,72,369.49834548542276,1.0694444444444444,0.0606026589850468,0.9393973410149532,2.7408997733209715
77,1,381.82171024987474,0.8491448513232172,1,14,383.6745690680109,57,382.8237147885375,0.24561403508771928,6.510195715847544e-08,0.9999999348980428,16.547311159203566,0,400.23414028435946,1.1825465303845704,1,37,402.4201625594869,52,401.2361586499028,0.7115384615384616,0.002520633090729585,0.9974793669092704,5.980721367296111,0,415.4110074210912,1.7833901434205472,1,41,418.21352601237595,22,416.42895187204704,1.8636363636363635,0.6876389732720439,0.31236102672795607,-0.7891042962626412,1,372.79904561210424,0.5657037454657257,1,87,374.3679564613849,89,373.8009976078756,0.9775280898876404,0.02452022923777486,0.9754797707622251,3.6834309625101453
78,1,386.17517983168364,0.698284171987325,1,24,387.87659841636196,69,387.17686516139656,0.34782608695652173,4.379772178264574e-08,0.9999999562022782,16.943683991213913,0,404.921236729715,1.1490588071756065,1,60,407.09050724236295,61,405.9393364400603,0.9836065573770492,0.010253401871693324,0.9897465981283067,4.569839408435905,1,420.7145741088316,1.0990603081882,1,10,422.8328817789443,44,421.73263826360926,0.22727272727272727,0.00021404784579626135,0.9997859521542037,8.449096918687859,1,376.86887497780845,0.6319909957237542,1,16,378.52037921128795,10,377.8873006128706,1.6,0.1113660464017584,0.8886339535982416,2.0768629088832213
79,0,390.3777105123736,0.9155660271644592,1,55,392.2973768757656,60,391.37972966814414,0.9166666666666666,0.000544308340722166,0.9994556916592778,7.515450212351983,1,409.59126852452755,0.8159004859626293,1,17,411.42639424838126,82,410.6089253714308,0.2073170731707317,5.631680795259442e-06,0.9999943683192047,12.087096985996162,1,425.3341471585445,1.2005411540158093,0,74,427.53764178743586,60,426.33600473450497,1.2333333333333334,0.9975225064742133,0.002477493525786709,-5.99802733737646,0,381.02176626957953,1.3163279416039586,1,55,383.35708122793585,60,382.039572449401,0.9166666666666666,0.022644908592161173,0.9773550914078388,3.7649149963434434
80,1,401.819710847456,1.131726700346917,1,15,403.9709389330819,56,402.8376280395314,0.26785714285714285,1.0393783533846346e-07,0.9999998960621647,16.079472749713414,1,420.9330304795876,1.9331181831657887,0,94,423.884901013691,46,421.95005799503997,2.0434782608695654,0.7626096593609346,0.23739034063906536,-1.167040520473893,1,437.0598639571108,1.6489327824674547,1,46,439.7279923488386,36,438.07783724786714,1.2777777777777777,0.7226460369788852,0.27735396302111487,-0.9576249915879823,0,392.8638008167036,1.8514646482653916,1,41,395.7330910032615,22,393.8808690235019,1.8636363636363635,0.3287925538539844,0.6712074461460156,0.7136512323766685
81,1,406.4719933504239,0.7997377584688365,1,40,408.291998913046,93,407.4902941468172,0.43010752688172044,7.676514424126424e-09,0.9999999923234856,18.68510023615707,0,426.38568086363375,1.284399918280542,1,77,428.67260759091005,72,427.387202242855,1.0694444444444444,0.016498037793299836,0.9835019622067002,4.0878781807368005,1,442.2287994576618,1.16557906428352,1,37,444.3972909101285,54,443.23061792273074,0.6851851851851852,0.06920517259365377,0.9307948274063462,2.5989632659710766,0,398.23363421158865,1.633267437107861,0,14,400.8852538028732,7,399.25087743019685,2.0,0.12596266716974458,0.8740373328302554,1.937137518907412
82,0,410.79170182719827,0.8485143342986703,1,77,412.66001976886764,72,411.80990188289434,1.0694444444444444,0.0062692388099813146,0.9937307611900187,5.0658113606141875,0,431.17445054929703,1.8153071044944227,1,7,434.00817894376814,54,432.1912556453608,0.12962962962962962,6.817706108619426e-05,0.9999318229389138,9.593334218016949,0,446.8988245362416,1.6999489581212401,1,45,449.61779685691,92,447.9166488889605,0.4891304347826087,0.029195366290026836,0.9708046337099732,3.5041152389409405,0,403.3865511827171,0.965631291270256,1,12,405.35466977674514,23,404.38810140127316,0.5217391304347826,0.016071552379892773,0.9839284476201072,4.114502402377844
83,0,415.1610402110964,0.8158637448213995,1,71,416.9807332805358,69,416.1627496392466,1.0289855072463767,0.003028046659399486,0.9969719533406005,5.796804893744207,1,436.5124092544429,0.949287231080234,1,4,438.4782846933231,22,437.5271126269363,0.18181818181818182,0.0030159120761465985,0.9969840879238534,5.800832512628981,0,452.1189026320353,1.2164079807698727,0,78,454.3542992095463,34,453.1367171080783,2.2941176470588234,0.9998682212620585,0.00013177873794150007,-8.934254482113865,1,407.85636261245236,0.8153193513862789,1,4,409.6913303122856,22,408.87472227262333,0.18181818181818182,0.007413038937383654,0.9925869610626163,4.897074158680322
84,1,419.4806119967252,1.0505993864499032,1,3,421.5340965120122,18,420.48216577107087,0.16666666666666666,3.868595783673712e-05,0.9999613140421633,10.159995183663074,0,440.9786090385169,1.3994558430276811,1,7,443.3978989087045,54,441.9968489953317,0.12962962962962962,6.817706108619426e-05,0.9999318229389138,9.593334218016949,1,456.8550300723873,2.2662366037257016,0,32,460.1245022234507,16,457.8571211290546,2.0,0.27685371078583076,0.7231462892141692,0.9601222913111715,0,412.19501859974116,2.5006798994727433,0,86,415.7123309536837,59,413.2101830081083,1.4576271186440677,0.46557135346863654,0.5344286465313635,0.1379328573528825
85,0,424.03437147429213,1.766967860981822,1,28,426.8204014133662,18,425.05137765640393,1.5555555555555556,0.014332291160164545,0.9856677088398355,4.230804173886007,1,445.89835915435106,0.8163765342906117,1,87,447.7343686297536,89,446.9163213833235,0.9775280898876404,0.005693877857197549,0.9943061221428025,5.1626535917223535,1,462.6263929842971,1.1810460891574621,1,14,464.8280948274769,8,463.6458884445019,1.75,0.008494526853834228,0.9915054731461658,4.759802411456338,1,418.21342724747956,0.7658107276074588,1,43,419.998562769033,97,419.2315352540463,0.44329896907216493,6.546501339477206e-05,0.9999345349866052,9.633929237518586
86,0,429.3209821530618,0.8490180368535221,1,22,431.18940873630345,31,430.3388408762403,0.7096774193548387,0.00017465382396852913,0.9998253461760315,8.652530022834586,0,450.23438798775896,1.2314277971163392,1,56,452.470491329208,59,451.23732052370906,0.9491525423728814,0.008500244891762154,0.9914997551082378,4.759123727091837,1,467.32918954081833,0.999322866089642,0,66,469.3480461873114,59,468.34742475673556,1.11864406779661,0.9839652141825117,0.016034785817488257,-4.1168300691190645,1,422.4991099280305,0.6655984222888947,1,37,424.1679517994635,54,423.5011595035903,0.6851851851851852,0.006253250420140022,0.99374674957986,5.068380999317533
87,1,433.6900206855498,0.6958924736827612,1,6,435.39311827812344,8,434.6950304512866,0.75,0.0007907129186325301,0.9992092870813675,7.141784565101379,1,454.97145211696625,1.5995083074085414,0,58,457.59047840256244,6,455.9892239267938,9.666666666666666,0.9089975828300927,0.09100241716990731,-2.301456366550378,1,471.84882406238467,1.316480829846114,1,4,474.16786804655567,22,472.85046277428046,0.18181818181818182,0.0002586627622900295,0.99974133723771,8.25972672458139,0,426.6689173281193,0.8987289313226938,1,54,428.57044921582565,80,427.67058606492355,0.675,0.0018020568780017232,0.9981979431219983,6.317022873939372
88,1,437.8929061307572,0.8828648701310158,1,32,439.7953889295459,16,438.9107771003619,2.0,0.05621089835817583,0.9437891016418242,2.8207920728448133,0,460.0909188957885,2.7506783194839954,0,62,463.84548066277057,17,461.0927270888351,3.6470588235294117,0.7907994491628442,0.20920055083715586,-1.3297510294872708,1,476.6686629089527,1.233323693741113,1,12,478.9207800398581,9,477.6862735338509,1.3333333333333333,0.004848453966317723,0.9951515460336823,5.32423514883242,0,431.0716577069834,0.9655996863730252,0,43,433.03991101682186,7,432.0732118762098,6.142857142857143,0.7927794753895019,0.2072205246104981,-1.3417615314386973
89,0,442.2959475456737,0.8993637938983738,1,54,444.21548195835203,80,443.31394295953214,0.675,4.260868657013361e-06,0.999995739131343,12.366033247495066,1,466.34525034204125,0.8988924869336188,1,40,468.2480689426884,93,467.3471983866766,0.43010752688172044,1.7837089911765247e-05,0.9999821629100882,10.934212728407005,1,481.42182260518894,1.2651110757142305,1,52,483.690210709814,68,482.4239563285373,0.7647058823529411,0.5037967857672394,0.49620321423276054,-0.015187434987735728,0,435.54132454423234,1.032181256916374,1,12,437.5762767577544,3,436.5430007870309,4.0,0.15769757480212054,0.8423024251978795,1.6754600092765375
90,0,446.71569134062156,0.8179014688357711,1,45,448.5522321728058,42,447.7333774222061,1.0714285714285714,0.0032203080208934587,0.9967796919791065,5.735052760966586,0,470.74829452252015,1.5988205065950751,1,96,473.3517961045727,89,471.75080118328333,1.0786516853932584,0.015424262826384982,0.984575737173615,4.156269046886993,0,486.19181860703975,1.2490016813389957,1,54,488.44361573876813,80,487.19343677628785,0.675,0.40146433858902886,0.5985356614109711,0.3993673988781927,1,440.07784435898066,1.1823173947632313,0,58,442.2793680294417,6,441.0959594761953,9.666666666666666,0.9592890726261039,0.0407109273738962,-3.159695918514164
91,1,451.0522408639081,1.6999900448136032,0,58,453.77086434559897,6,452.06926837936044,9.666666666666666,0.9965027476328823,0.0034972523671177626,-5.652274274707076,0,475.85149664850906,1.1496968306601048,1,87,478.0045080385171,85,476.85302671883255,1.0235294117647058,0.009502445702059048,0.990497554297941,4.646658189180575,1,490.94458403252065,1.5159482094459236,1,17,493.4638357399963,82,491.94673671899363,0.2073170731707317,6.780465556843751e-05,0.9999321953444316,9.59881189221979,0,444.78072150750086,1.3322425703518093,1,38,447.1158274789341,43,445.78246846655384,0.8837209302325582,0.02624096340994575,0.9737590365900542,3.6138421986171227
92,1,456.2714739246294,1.0658250292763114,1,4,458.3412179569714,22,457.27345594437793,0.18181818181818182,1.9491538415961074e-05,0.999980508461584,10.845510622226538,1,480.50517292600125,0.9153700773604214,1,43,482.44106522621587,93,481.52412162162364,0.46236559139784944,2.4946521600566207e-05,0.9999750534783994,10.598751213460089,1,495.96483326889575,1.182695863302797,1,15,498.1502530761063,42,496.96644709212705,0.35714285714285715,0.0008447131012181419,0.9991552868987819,7.075668443372087,1,449.61696011805907,0.6994349840097129,1,15,451.31907795974985,19,450.61850915150717,0.7894736842105263,0.03600259892991586,0.9639974010700841,3.2874974702735016
93,1,460.8418085728772,0.6986081218346953,1,45,462.5602451907471,40,461.85988102387637,1.125,0.005098429680199246,0.9949015703198008,5.273711221489296,0,484.94124418869615,1.3154667089693248,1,59,487.26042012358084,65,485.94327203556895,0.9076923076923077,0.00549910680778698,0.994500893192213,5.1976553159594,1,500.6511680367403,2.966728770174086,1,53,504.6209826269187,55,501.65306551381946,0.9636363636363636,0.7753442696960815,0.22465573030391847,-1.238738006793092,0,453.8198348963633,0.8155536223202944,1,60,455.6385695482604,70,454.8218216570094,0.8571428571428571,0.011901607910319911,0.9880983920896801,4.419108770420625
94,0,465.0606718561612,1.648457524832338,0,95,467.7144354423508,16,466.0638110092841,5.9375,0.9999945547926256,5.445207374433014e-06,-12.120769271787058,1,489.7607938507572,1.4164841487072408,1,98,492.18066130019724,73,490.76263325382024,1.3424657534246576,0.13369841993634202,0.866301580063658,1.868646426756396,0,507.12233057431877,1.4001886807382107,0,78,509.54149955604225,65,508.1401205570437,1.2,0.9986411349470511,0.0013588650529489468,-6.599745658382922,1,458.13971087895334,1.2490901751443744,0,94,460.4079302926548,46,459.15805908245966,2.0434782608695654,0.9130905731684166,0.0869094268315834,-2.3519685741205136
95,0,470.21479020733386,1.1157994288951159,1,78,472.35020005889237,65,471.2328555472195,1.2,0.03864418323161922,0.9613558167683808,3.2139483320527673,0,494.6807438679971,0.8821126744151115,1,87,496.5665163854137,76,495.68276499863714,1.144736842105263,0.029722766613941354,0.9702772333860586,3.4856685334615265,0,512.0421194066294,1.9666951899416745,1,22,515.0116677256301,31,513.0438161925413,0.7096774193548387,0.010609352310364417,0.9893906476896356,4.535353340685431,0,462.90979063371196,0.8658843673765659,0,35,464.79445816623047,62,463.92733607348055,0.5645161290322581,0.0018884117962124636,0.9981115882037875,6.270128925547503
96,0,474.85093605704606,1.0492553892545402,1,68,476.91991406679153,63,475.8687987308949,1.0793650793650793,0.005915282377633835,0.9940847176223662,5.124283196485322,1,499.0676980125718,0.8992160414345562,1,43,500.98672082135454,97,500.0856910562143,0.44329896907216493,1.4890881577689363e-05,0.9999851091184223,11.114746616005053,1,517.5136256469414,1.4501958712935448,1,43,519.9813630073331,97,518.530450890772,0.44329896907216493,0.012495963387571196,0.9875040366124288,4.369774921314556,0,467.29610240925103,1.182200852315873,0,62,469.4971990189515,16,468.314210020937,3.875,0.916248739791354,0.08375126020864598,-2.3924366599422844
97,1,479.42072275606915,0.9325998635031283,1,74,481.37298242468387,60,480.43872093549,1.2333333333333334,0.0470090601242904,0.9529909398757096,3.0092650449235214,0,503.48664931580424,0.9822210795246065,1,35,505.4728711755015,62,504.4889276311733,0.5645161290322581,0.0005559084438363504,0.9994440915561636,7.494350883614037,1,522.4828041889705,1.6665860740467906,0,58,525.1684203417972,58,523.5006957021542,1.0,0.9034040246460588,0.09659597535394115,-2.235632800861673,1,471.99855960858986,0.9661006233654916,1,6,473.96756313880906,8,473.0002761478536,0.75,0.04909702856227638,0.9509029714377236,2.9636135145200257
98,1,483.87378834886476,0.6154754795134068,1,46,485.50940442224964,40,484.89183907117695,1.15,0.0064542352549431525,0.9935457647450568,5.0365435810983055,1,507.9733187793754,0.9486503936350346,1,42,509.94202285353094,67,508.99166066152975,0.6268656716417911,0.0006379569442203081,0.9993620430557797,7.356601601919502,0,527.6697299680673,1.6831873185001314,0,77,530.3719307729043,72,528.6875523459166,1.0694444444444444,0.9970647863483236,0.002935213651676396,-5.828035504073878,1,476.46872659260407,1.7496242970228195,0,72,479.23758205445483,51,477.4868282782845,1.411764705882353,0.3218609614350417,0.6781390385649583,0.7452326830380682
99,0,488.0098065943457,1.0825143726542592,1,87,490.1121786972508,85,489.0276803295128,1.0235294117647058,0.00335863964066474,0.9966413603593353,5.692854963306645,0,512.4429686288349,2.3663868848234415,1,60,515.8128747153096,40,513.4445480820723,1.5,0.13460243048991094,0.8653975695100891,1.860863545091469,0,532.8730294369161,1.5328327124007046,0,62,535.4252339550294,17,533.8910912214778,3.6470588235294117,0.9981697321088168,0.001830267891183235,-6.301460989339862,0,481.73865306423977,1.1657307678833604,0,53,483.9072737013921,15,482.7403743439354,3.533333333333333,0.817096635634444,0.18290336436555601,-1.4967994191451086
