,self_acceptUp,self_cue_times,self_decision_times,self_decisions,self_punishment_values,self_response_times,self_reward_values,self_trial_times,self_punishment_reward_ratio,self_prob_reject,self_prob_accept,self_SV,harm_other_acceptUp,harm_other_cue_times,harm_other_decision_times,harm_other_decisions,harm_other_punishment_values,harm_other_response_times,harm_other_reward_values,harm_other_trial_times,harm_other_punishment_reward_ratio,harm_other_prob_reject,harm_other_prob_accept,harm_other_SV,harm_self_acceptUp,harm_self_cue_times,harm_self_decision_times,harm_self_decisions,harm_self_punishment_values,harm_self_response_times,harm_self_reward_values,harm_self_trial_times,harm_self_punishment_reward_ratio,harm_self_prob_reject,harm_self_prob_accept,harm_self_SV,other_acceptUp,other_cue_times,other_decision_times,other_decisions,other_punishment_values,other_response_times,other_reward_values,other_trial_times,other_punishment_reward_ratio,other_prob_reject,other_prob_accept,other_SV
0,1,0.008587048156186938,0.6940808785147965,1,3,1.7330078292870894,18,1.0377216193592176,0.16666666666666666,0.0,1.0,inf,1,0.005134609178639948,0.8529874915257096,1,28,1.8820892728399485,82,1.028472448932007,0.34146341463414637,1.107313352122219e-09,0.9999999988926866,20.62132915792001,1,0.009534009615890682,2.145498239202425,1,53,3.1827789704548195,55,1.0355554993730038,0.9636363636363636,0.026283143714656787,0.9737168562853432,3.6121927491073254,1,0.006076039746403694,1.3298969601746649,1,82,2.3682546279160306,40,1.0359770294744521,2.05,0.028650911699361736,0.9713490883006383,3.5235006532726936
1,1,4.2324918794911355,0.5141289653256536,1,46,5.765237309155054,36,5.249669136246666,1.2777777777777777,6.661338147750939e-16,0.9999999999999993,34.945041100449046,1,4.3824886796064675,0.4274750775657594,1,37,5.832866634475067,54,5.40389348519966,0.6851851851851852,5.027244831534716e-07,0.9999994972755168,14.503223061400165,1,5.681801984319463,1.0640216271858662,1,19,7.764585063443519,37,6.698795932810754,0.5135135135135135,0.00016088732312069531,0.9998391126768793,8.734645394119942,1,4.866311717429198,0.0809148350963369,1,87,5.965617437032051,89,5.883177665993571,0.9775280898876404,5.434709993046294e-05,0.9999456529000695,9.820064956389034
2,0,8.264943778864108,0.4136874449905008,1,14,9.696750306291506,57,9.281958665465936,0.24561403508771928,0.0,1.0,inf,1,8.331023279461078,1.3645177449798211,0,97,10.712433442124166,61,9.347388290567324,1.5901639344262295,0.9594218130228662,0.04057818697713375,-3.1631001692631635,0,10.26367405243218,2.030382569297217,0,68,13.312540345592424,63,11.280564099899493,1.0793650793650793,0.20559419614661056,0.7944058038533894,1.35169011433905,1,8.464834820944816,0.6797223825706169,1,37,10.164514505420811,54,9.483074792078696,0.6851851851851852,0.0,1.0,inf
3,0,12.196556726354174,0.9145664559910074,1,60,14.128703796537593,70,13.212971515255049,0.8571428571428571,8.001599383078428e-12,0.9999999999919984,25.551379671337823,1,13.297221456305124,0.7643709402764216,1,4,15.079677108675241,22,14.313722368446179,0.18181818181818182,8.730829392789019e-10,0.9999999991269171,20.858990558827166,0,15.811007508542389,0.9812330172862858,1,53,17.810883854399435,15,16.828041358152404,3.533333333333333,0.017667711118819596,0.9823322888811804,4.018190887763349,1,12.663600729079917,0.5632654802175239,1,46,14.247025387361646,36,13.681594577152282,1.2777777777777777,2.220446049250313e-14,0.9999999999999778,31.438483203129042
4,1,16.62836167367641,0.6291762896580622,1,15,18.277622474823147,42,17.64709310082253,0.35714285714285715,0.0,1.0,inf,1,17.578443332924508,0.8145385646494105,1,46,19.41088093095459,40,18.594765282352455,1.15,4.2903327658661006e-05,0.9999570966723413,10.05651826298954,1,20.309235264430754,2.214193439343944,1,15,23.54238413053099,19,21.326587533345446,0.7894736842105263,7.49591704219954e-05,0.999925040829578,9.498492025057775,1,16.7456213402329,0.980848622857593,1,28,18.7451946742367,82,17.762491634581238,0.34146341463414637,0.0,1.0,inf
5,1,20.776665636803955,0.6629508535843343,1,28,22.459552458953112,82,21.79526432347484,0.34146341463414637,0.0,1.0,inf,0,21.909700093325227,0.5479758254950866,1,37,23.47702127089724,52,22.92736999131739,0.7115384615384616,6.38303413680319e-07,0.9999993616965863,14.264451458313744,1,26.04053405940067,1.1792222353396937,1,10,28.224278954206966,44,27.043207832961343,0.22727272727272727,4.672532493266157e-05,0.9999532746750673,9.971177524080172,0,21.242872505099513,1.3812959900824353,1,87,23.643212415627204,76,22.260357514489442,1.144736842105263,0.000832697931725912,0.9991673020682741,7.0900065637249625
6,1,24.95913290407043,0.6642968266969547,1,24,26.64169222046621,69,25.975938408402726,0.34782608695652173,0.0,1.0,inf,0,25.974949570489116,0.7810085435630754,1,60,27.77531768847257,70,26.992665295605548,0.8571428571428571,8.95204973081487e-05,0.9999104795026919,9.320953414197302,0,30.722104537882842,1.4810994865838438,0,62,33.22221792046912,17,31.73973809031304,3.6470588235294117,0.06354761696320677,0.9364523830367932,2.690309176608302,1,26.143074144260027,1.064571552327834,1,46,28.22579282836523,40,27.15895520558115,1.15,9.547918011776346e-15,0.9999999999999905,32.282453273423585
7,0,29.141025752411224,0.5639908125158399,1,12,30.723611300927587,3,30.15816231793724,4.0,0.0,1.0,inf,1,30.272831173846498,1.1656163308070973,1,58,32.45711098134052,6,31.28993929491844,9.666666666666666,0.09137203678631767,0.9086279632136823,2.2969962406129008,1,35.721640736213885,1.0309265684336424,1,37,37.771246978780255,54,36.738494042889215,0.6851851851851852,0.002607031626836176,0.9973929683731638,5.946932576746656,0,30.72360418981407,0.596424933988601,1,45,32.34113012754824,60,31.74253354256507,0.75,0.0,1.0,inf
8,1,33.22269199369475,1.1474391743540764,0,98,35.388101312564686,73,34.23949394247029,1.3424657534246576,0.995535073586418,0.0044649264135820125,-5.407027621542682,0,34.95564174919855,0.5484127629315481,1,12,36.52069409075193,23,35.97178236558102,0.5217391304347826,9.132376965759192e-09,0.999999990867623,18.511439820348972,1,40.27048609114718,0.997113288496621,1,43,42.28682305291295,97,41.28756734810304,0.44329896907216493,0.009577041348182047,0.990422958651818,4.638763374876566,1,34.8388968470972,0.6144492018502206,1,25,36.4720573280938,37,35.85608121508267,0.6756756756756757,0.0,1.0,inf
9,0,37.887672671233304,0.6128448586678132,1,54,39.52039700478781,80,38.90617298777215,0.675,3.197442310920451e-14,0.999999999999968,31.07384008954112,1,39.02043453569058,0.6812469235155731,1,53,40.72178137791343,40,40.03799895232078,1.325,0.0003713668200422404,0.9996286331799578,7.89794881477035,1,44.784419106086716,0.9789317863760516,1,52,46.784271748387255,68,45.80384781619068,0.7647058823529411,0.025943954680993864,0.9740560453190061,3.625530221179923,1,38.97015194839332,0.86437512782868,1,58,40.854034798569046,6,39.98794431530405,9.666666666666666,1.759799245215632e-07,0.9999998240200755,15.552895737652642
10,1,42.030649630585685,1.0476337024010718,1,74,44.08534465520643,60,43.03647204104345,1.2333333333333334,1.413234295033483e-06,0.999998586765705,13.469628240877302,0,43.21940152987372,1.164847937063314,1,78,45.40270869701635,65,44.23636821913533,1.2,0.04017842477293876,0.9598215752270612,3.1734172536885454,1,49.284429772756994,0.7311178570380434,1,16,51.0332171326736,10,50.300355475977995,1.6,7.911295985485456e-05,0.9999208870401451,9.444554739120305,0,43.35225307289511,0.6664210703456774,1,7,45.03772280458361,54,44.3696049466962,0.12962962962962962,0.0,1.0,inf
11,1,46.58485438441858,0.8643498439341784,1,33,48.46728459489532,25,47.60162433318328,1.32,0.0,1.0,inf,0,47.9009550207993,0.9977935837814584,0,96,49.91703795827925,89,48.91771153744776,1.0786516853932584,0.3803484873416423,0.6196515126583577,0.4880693392389618,0,53.53233654156793,1.0620830623665825,1,45,55.61498767021112,92,54.55123507953249,0.4891304347826087,0.01214114887158202,0.987858851128418,4.398939407936952,0,47.53480369807221,0.6812967011937872,1,14,49.23460387613159,57,48.551610782626085,0.24561403508771928,0.0,1.0,inf
12,0,50.96594849822577,0.5977736726636067,1,59,52.58231809211429,65,51.98329879180528,0.9076923076923077,4.780398299430999e-12,0.9999999999952196,26.066497246651046,0,52.41551183722913,0.6009977663634345,1,60,54.035000438569114,61,53.432264008326456,0.9836065573770492,0.0002621107732133643,0.9997378892267866,8.246481199902751,0,58.11369028955232,1.5963131317403167,0,80,60.72974343947135,60,59.13184255710803,1.3333333333333333,0.5893556792471237,0.41064432075287627,-0.3613024308914081,1,51.73265029897448,1.5809950324473903,0,97,54.33268056064844,61,52.75012701214291,1.5901639344262295,0.9828316858639983,0.017168314136001776,-4.047372397041848
13,0,55.081904463120736,0.6796279629925266,1,22,56.780974173219875,31,56.10003895300906,0.7096774193548387,0.0,1.0,inf,1,56.53026681637857,0.6652584054972976,1,19,58.214974080096,37,57.54812634375412,0.5135135135135135,1.4864773634215567e-08,0.9999999851352264,18.024271593852767,1,63.227960923686624,0.6645998386666179,1,40,64.91189386765473,93,64.24565452535171,0.43010752688172044,0.005968793486383128,0.9940312065136169,5.115223790149562,0,56.830911872093566,0.8978790749097243,1,62,58.74790676869452,16,57.84838384448085,3.875,5.259726894024652e-07,0.9999994740273106,14.45801602087192
14,1,59.27999639697373,0.5098579596960917,1,15,60.81292118446436,19,60.30177493044175,0.7894736842105263,0.0,1.0,inf,1,60.71330218145158,1.0801835770253092,1,40,62.81153452012222,93,61.73078916617669,0.43010752688172044,1.2050398123797379e-08,0.9999999879496019,18.23416812618585,1,67.41010977164842,1.2790664231870323,0,98,69.7107157164719,73,68.42956811131444,1.3424657534246576,0.9572385418641417,0.04276145813585835,-3.108415434399104,0,61.245974524877965,0.6814547255635262,1,56,62.94627564039547,59,62.263387633138336,0.9491525423728814,5.222489107836736e-13,0.9999999999994778,28.280632080098115
15,0,63.31223851884715,0.4296731975628063,1,62,64.76174931472633,17,64.33084194629919,3.6470588235294117,1.037923080815517e-09,0.9999999989620769,20.686044157171153,1,65.3108273607213,0.9141168764326721,0,98,67.24546489608474,73,66.32949676329736,1.3424657534246576,0.8848148534506619,0.11518514654933806,-2.0388376142358453,1,72.20907700294629,1.213012206600979,1,69,74.44183949928265,61,73.22726127051283,1.1311475409836065,0.22675897171401205,0.773241028285988,1.226703154136045,0,65.4446341615403,0.8314270317787305,1,86,67.29493879317306,59,66.46197062800638,1.4576271186440677,0.013142669073101687,0.9868573309268983,4.3186613625496495
16,0,67.2617252159398,0.6472408537520096,1,68,68.92706579423975,63,68.27857536217198,1.0793650793650793,8.619346014704377e-09,0.999999991380654,18.569256614893373,0,69.7428732952103,0.6981737115420401,1,24,71.46005616197363,90,70.76027336646803,0.26666666666666666,1.241060587631182e-10,0.9999999998758939,22.809884603165003,0,76.94075466156937,1.3473535251105204,1,58,79.30696840386372,58,77.95785093086306,1.0,0.05440755917027229,0.9455924408297277,2.855308553029099,0,69.7929034383269,1.1626691750716418,1,45,71.97691578953527,92,70.81258775293827,0.4891304347826087,0.0,1.0,inf
17,0,71.42540456226561,0.5479521218221635,1,41,72.99213393835817,22,72.44302033691201,1.8636363636363635,0.0,1.0,inf,0,73.95855137414765,0.714893092517741,1,40,75.69143989507575,15,74.97569070511963,2.6666666666666665,0.0001333932521129233,0.9998666067478871,8.922075607473518,0,81.80526015965734,1.197292725322768,1,7,84.02202900219709,54,82.82297430443577,0.12962962962962962,3.3446211460175235e-05,0.9999665537885398,10.305538590819108,1,74.47508507641032,0.8809586078859866,1,42,76.37516543176025,39,75.492591814138,1.0769230769230769,4.440892098500626e-16,0.9999999999999996,35.35050620855721
18,0,75.49246104888152,0.6965993930352852,1,78,77.2082556708483,65,76.51002428040374,1.2,2.7646158582861347e-05,0.9999723538414171,10.495996123202296,1,78.19059960008599,0.6633190505672246,1,14,79.87411614961457,57,79.20920263242442,0.24561403508771928,2.921298758451485e-10,0.9999999997078701,21.953822631961966,0,86.52172836079262,1.2310309435706586,1,78,88.77040154801216,34,87.53774650825653,2.2941176470588234,0.45185708674093406,0.548142913259066,0.19317009350661435,0,78.87359032314271,0.597817919566296,1,60,80.49072040966712,40,79.8911555300001,1.5,6.891334169978336e-10,0.9999999993108666,21.095586224367757
19,1,79.70612668653484,0.6825549707282335,1,72,81.40708439366426,51,80.7234825110063,1.411764705882353,4.746150404910665e-07,0.9999995253849595,14.560761327952966,0,82.37257304089144,0.5651451809098944,1,50,83.956268711132,7,83.38936590321828,7.142857142857143,0.007514942729477836,0.9924850572705222,4.883318554453246,1,91.26848431653343,1.0812589334091172,0,75,93.36855842999648,70,92.28578285709955,1.0714285714285714,0.4344710017381622,0.5655289982618378,0.2636323701236129,0,83.00322251336183,0.6314585576765239,1,58,84.64126318413764,58,84.00804897490889,1.0,3.183231456205249e-12,0.9999999999968168,26.47312425389926
20,1,90.93887021997944,0.8143722439417616,1,43,92.7687841678271,97,91.95323306147475,0.44329896907216493,0.0,1.0,inf,1,93.48715458821971,1.3805473493412137,1,15,95.88594427902717,19,94.5036195499124,0.7894736842105263,3.7131675290069666e-08,0.9999999628683247,17.108795413061873,0,102.90044697211124,1.9293346302583814,1,15,105.84777584555559,42,103.91677326732315,0.35714285714285715,9.4667692950412e-05,0.9999053323070496,9.265043095330244,1,94.16973128728569,0.7810630620224401,1,62,95.96854207431898,43,95.1858956074575,1.441860465116279,1.8132639834078645e-09,0.999999998186736,20.128137308108936
21,0,95.26732086145785,1.3279603705741465,0,96,97.61697996326257,89,96.28788181662094,1.0786516853932584,0.9423527403001002,0.057647259699899825,-2.7940369512089944,1,98.38419889903162,0.7641260023228824,1,75,100.16733998246491,70,99.40157447662205,1.0714285714285714,0.009054053291235098,0.9909459467087649,4.695447453724271,1,108.34602019400336,1.2310364744625986,1,74,110.59604607045185,60,109.36349019105546,1.2333333333333334,0.37509536074899896,0.624904639251001,0.5104187719234208,1,98.46678049687762,0.3481732769869268,1,33,99.834032064653,25,99.48420269158669,1.32,0.0,1.0,inf
22,1,100.11560159502551,0.4479704526020214,1,32,101.5819076235639,16,101.13306882674806,2.0,0.0,1.0,inf,0,102.66578502196353,0.8150260699912906,1,87,104.49966024747118,85,103.68255971150938,1.0235294117647058,0.058094732388695114,0.9419052676113049,2.7858297091696453,0,113.0944622704992,0.9979642501566559,1,12,115.1112334044883,23,114.11174066294916,0.5217391304347826,5.0486564810325874e-05,0.9999495134351897,9.893752812599356,0,102.33204056171235,0.5148614086210728,1,53,103.86587675509509,15,103.34953228710219,3.533333333333333,4.900115868622379e-10,0.9999999995099884,21.436592077955815
23,0,104.08097567444202,0.3976720629725605,1,40,105.49807684251573,15,105.09901890519541,2.6666666666666665,0.0,1.0,inf,0,106.99741946090944,0.44690971344243735,1,35,108.46377171156928,62,108.01557133346796,0.5645161290322581,1.0439921238614147e-07,0.9999998956007876,16.07504360132116,0,117.61061552888714,1.181203071726486,1,6,119.80966114031617,26,118.6268513550749,0.23076923076923078,2.1768514443021303e-05,0.999978231485557,10.73502415501684,0,106.36402194318362,0.49831743468530476,1,51,107.88112492859364,7,107.38122408883646,7.285714285714286,5.321911800137968e-10,0.9999999994678088,21.354018329681196
24,1,107.99927071714774,0.8164392036851496,1,82,109.83176520408597,40,109.01383108925074,2.05,0.0033476783602893745,0.9966523216397106,5.69613490580579,0,110.96213655371685,0.4310480102431029,1,12,112.41261445917189,3,111.9800375624327,4.0,9.943875800555446e-08,0.999999900561242,16.123723780271018,1,122.3080279576825,0.8453691332833841,1,66,124.17492278537247,59,123.32776402530726,1.11864406779661,0.1567166450229972,0.8432833549770028,1.6828636624762618,0,110.3809313486563,0.6476062852889299,1,71,112.04638925998006,64,111.39718732296024,1.109375,2.9183824690193205e-08,0.9999999708161753,17.349651200940748
25,1,112.32829222187866,0.7311881779460236,1,87,114.07835009833798,89,113.34582661394961,0.9775280898876404,0.010136029006615921,0.9898639709933841,4.581471225894342,1,114.91049930197187,0.5984701653942466,1,33,116.52928666980006,25,115.92897907528095,1.32,4.669270348034438e-06,0.999995330729652,12.274503071600245,1,126.67299883777741,0.9796539581147954,1,46,128.673510836903,40,127.69218300492503,1.15,0.008314128316301628,0.9916858716836984,4.781450121053953,0,114.54458620108198,1.1644086291780695,1,71,116.72796645457856,69,115.56203446979634,1.0289855072463767,1.0212292678168922e-08,0.9999999897877073,18.399673667545354
26,1,116.5767267922638,0.19831316801719368,1,43,117.79383104178123,93,117.59425367822405,0.46236559139784944,0.0,1.0,inf,0,119.02667294559069,0.5973134264349937,1,53,120.64251592301298,57,120.04413464630488,0.9298245614035088,4.881093199538e-05,0.9999511890680046,9.927507441771018,1,131.1720431849826,0.8801518930122256,1,14,133.07247158919927,57,132.19007298361976,0.24561403508771928,9.532904740983117e-05,0.9999046709525902,9.258080660471158,0,119.22637159284204,0.664731394033879,1,14,120.91034404281527,7,120.24384751589969,2.0,0.0,1.0,inf
27,1,120.29215835314244,0.4814242268912494,1,15,121.79225237760693,56,121.30962360941339,0.26785714285714285,0.0,1.0,inf,0,123.1410036290763,0.7313940046587959,1,7,124.89144748018589,54,124.15853288536891,0.12962962962962962,4.8268944397023006e-11,0.9999999999517311,23.754232735164155,0,135.5708123325603,0.8474084386834875,1,43,137.43739545694552,7,136.5881977865938,6.142857142857143,0.003863698595869103,0.9961363014041309,5.552259186852582,0,123.40823718195315,0.531455950345844,1,28,124.95867265784182,18,124.42560051253531,1.5555555555555556,0.0,1.0,inf
28,0,124.29087361437269,0.4646274138940498,1,60,125.7745366524905,40,125.30855338892434,1.5,4.9693138493012157e-11,0.9999999999503069,23.725154250797925,0,127.3899877294898,0.5991504606790841,1,53,129.00724107504357,15,128.40700340620242,3.533333333333333,0.007294569729836997,0.992705430270163,4.9133037750646045,1,139.93610439728945,0.764226347906515,1,28,141.71876903704833,82,140.95299641997553,0.34146341463414637,0.000938474757155694,0.9990615252428443,6.97031568390959,0,127.45855334936641,0.7979874797165394,1,80,129.27419215929694,60,128.47445653413888,1.3333333333333333,8.95116010268815e-05,0.9999104883989731,9.321052805063951
29,0,128.27296075376216,0.43123684939928353,1,45,129.7228330305079,60,129.29037544236053,0.75,0.0,1.0,inf,0,131.5047371777473,0.6976154902949929,1,45,133.2207953054458,60,132.5227021863684,0.75,2.8947718637706288e-06,0.9999971052281362,12.752601358801885,0,144.21827916125767,0.0957529351580888,0,53,145.33453300222754,57,145.23699676129036,0.9298245614035088,0.02680769209443934,0.9731923079055607,3.5918928421745253,1,131.77217023656704,1.2643172120442614,0,98,134.07201884908136,73,132.80631852825172,1.3424657534246576,0.9110116039159127,0.08898839608408723,-2.3260496545833504
30,1,132.22154078562744,1.8962079664925113,0,94,135.12223901669495,46,133.22446581802797,2.0434782608695654,0.9775252172904013,0.022474782709598698,-3.7726301770488533,0,135.72102997172624,0.731265609851107,1,71,137.47029733087402,69,136.73791685863398,1.0289855072463767,0.002989873320559,0.997010126679441,5.80952990826211,1,147.8325908818515,0.9814036836614832,1,26,149.8328042149078,84,148.84977722505573,0.30952380952380953,0.0007163754596726246,0.9992836245403274,7.240589511248589,1,136.57049470336642,0.5314413330052048,1,12,138.1208523522364,9,137.58785092283506,1.3333333333333333,0.0,1.0,inf
31,1,137.61972129228525,0.4793371190316975,1,25,139.10304141731467,37,138.62245788052678,0.6756756756756757,0.0,1.0,inf,1,139.96880281472113,1.6810750719159842,1,15,142.66891588130966,56,140.98652604606468,0.26785714285714285,4.4807069166097335e-10,0.9999999995519293,21.526070101627536,1,152.33213577151764,1.031427900888957,1,45,154.38151366868988,40,153.3485584615264,1.125,0.007197936045795439,0.9928020639542046,4.926736988189782,1,140.61902242910583,0.698091538855806,1,26,142.33603028371,84,141.63642210536636,0.30952380952380953,0.0,1.0,inf
32,0,141.60160260484554,0.3816353476140648,1,43,143.00178172555752,7,142.61891852808185,6.142857142857143,2.220446049250313e-16,0.9999999999999998,36.04365338911715,0,145.16697652626317,0.7821076036198065,1,62,146.96799412474502,16,146.18429481994826,3.875,0.09471426503025271,0.9052857349697473,2.2573860003692054,1,156.8809491264401,0.9799542045220733,1,4,158.87976552336477,22,157.89827295090072,0.18181818181818182,1.5631642465097073e-05,0.9999843683575349,11.066197703147912,0,144.83532509964425,0.3625945874955505,1,41,146.20183592790272,22,145.83752598508727,1.8636363636363635,7.771561172376096e-15,0.9999999999999922,32.488305327627735
33,1,145.49987318529747,0.8650518676731735,1,56,147.38450191088486,46,146.51774930523243,1.2173913043478262,1.3002932064409833e-12,0.9999999999986997,27.368431333474707,0,149.46581299230456,1.4796365753281862,1,87,151.96601684391499,76,150.4853886651108,1.144736842105263,0.1529877253345313,0.8470122746654687,1.711357494875522,1,161.37799406936392,0.4818113868823275,1,14,162.87949530151673,8,162.39554821443744,1.75,5.797571408838742e-05,0.9999420242859116,9.755428380325913,0,148.7003453624202,0.28187570278532803,1,59,150.00115002284292,65,149.71707422484178,0.9076923076923077,1.6266987756807794e-12,0.9999999999983733,27.14446844577677
34,1,149.88254161761142,0.5643222687067464,1,19,151.46598681912292,37,150.90030633029528,0.5135135135135135,0.0,1.0,inf,0,154.46506356145255,0.5987846340285614,1,38,156.08207591972314,43,155.48134877020493,0.8837209302325582,2.5444024621679162e-06,0.9999974555975378,12.881612180055381,0,165.37671367637813,0.8308771067531779,1,37,167.227007246227,52,166.39449695684016,0.7115384615384616,0.002554776514018031,0.997445223485982,5.967232483679398,0,152.4993509146152,0.5132562754442915,1,35,154.03254078805912,62,153.51742496003862,0.5645161290322581,0.0,1.0,inf
35,0,153.96394751372281,0.4314118614420295,1,28,155.41417653067037,18,154.9815573624801,1.5555555555555556,0.0,1.0,inf,0,158.5810380942421,0.765290247509256,1,45,160.36304969794583,92,159.59618039126508,0.4891304347826087,6.345422409737012e-08,0.9999999365457759,16.5729470079091,1,169.72721425828058,0.712931219022721,1,3,171.45978594012558,18,170.74471309478395,0.16666666666666666,1.2980045201671508e-05,0.9999870199547983,11.252084384155744,0,156.53118967905175,0.4114099178696051,1,9,157.94739721890073,7,157.53436162462458,1.2857142857142858,0.0,1.0,inf
36,1,157.91290640924126,0.46469733980484307,1,12,159.39612065791152,9,158.93022549292073,1.3333333333333333,0.0,1.0,inf,1,162.86129839206114,0.6988591426052153,1,74,164.57850180193782,60,163.87804068659898,1.2333333333333334,0.021669188442168474,0.9783308115578315,3.809956501873419,1,173.95736342540476,1.2644353352952749,0,94,176.24098964384757,46,174.97483579290565,2.0434782608695654,0.9049278571002283,0.09507214289977169,-2.2532192222630716,0,160.44572492525913,1.531071950797923,1,53,162.99571753758937,57,161.4631293421844,0.9298245614035088,7.238654120556021e-14,0.9999999999999276,30.256756007750376
37,0,161.89570031291805,0.7277238870738074,1,77,163.6446883638855,72,162.91578324418515,1.0694444444444444,7.95567449662915e-06,0.9999920443255034,11.741617155045903,1,167.07616659568157,0.81315466563683,1,6,168.9095317972824,8,168.09509673865978,0.75,8.605578361020605e-09,0.9999999913944216,18.570855188731368,1,178.74007626262028,1.3953751776134595,1,12,181.15578642045148,9,179.75872551708017,1.3333333333333333,4.379915814300972e-05,0.999956200841857,10.035852161128465,1,165.4939899353776,0.7779294373467565,1,17,167.29425652266946,82,166.51468363101594,0.2073170731707317,0.0,1.0,inf
38,0,166.14320727984887,0.5448900031624362,1,45,167.7097418907797,42,167.16371687699575,1.0714285714285714,2.220446049250313e-16,0.9999999999999998,36.04365338911715,1,171.4084133793367,0.8147159471409395,1,25,173.24129818659276,37,172.42534964892548,0.6756756756756757,9.455640548328148e-08,0.9999999054435945,16.174069202533392,1,183.65415165771265,1.6140031778486446,0,87,186.2874835950788,89,184.67167459288612,0.9775280898876404,0.8419300331195821,0.15806996688041783,-1.6726591513676539,1,169.79239657497965,0.8132731838850304,1,52,171.62607110932004,68,170.8112014834769,0.7647058823529411,3.3306690738754696e-15,0.9999999999999967,33.33560318801494
39,1,170.20956055773422,0.39781902567483485,1,54,171.62577046791557,78,171.22655174066313,0.6923076923076923,3.597122599785507e-14,0.999999999999964,30.956057053884734,0,175.74085650837515,0.5971004884922877,1,14,177.35599864739925,7,176.75817124638706,2.0,1.1428928958778783e-07,0.9999998857107104,15.984532860640687,1,188.78545732668135,0.978853959357366,1,25,190.786580090411,37,189.80553196161054,0.6756756756756757,0.0003845991770914381,0.9996154008229086,7.8629241913054075,1,174.12435693922453,0.8811786569422111,1,4,176.02442030701786,22,175.1418044178281,0.18181818181818182,0.0,1.0,inf
40,0,181.1565366415307,1.4638574398122728,1,78,183.63812244834844,34,182.1730166154448,2.2941176470588234,0.0001824425590660761,0.9998175574409339,8.608892720123967,0,186.88763909123372,0.6146163126686588,1,68,188.51869626680855,63,187.90353555988986,1.0793650793650793,0.0024278550718258574,0.9975721449281741,6.018316290827245,1,200.31618517939933,0.9311076643643901,1,50,202.26540876575746,62,201.3327366594458,0.8064516129032258,0.018396921725975623,0.9816030782740244,3.97700367624994,0,185.55493996257428,1.0808524154126644,1,12,187.65390434931032,3,186.5714867018396,4.0,0.0,1.0,inf
41,0,186.1365564261796,0.4479337119264528,1,15,187.6034321327461,42,187.15419274393935,0.35714285714285715,0.0,1.0,inf,1,191.01897913054563,0.8481100671924651,1,45,192.88457934290636,40,192.0353429565439,1.125,3.151910000187552e-05,0.9999684808999981,10.364885327025497,0,204.76341449737083,1.3479492772603408,1,71,207.1303681890713,69,205.7808197044069,1.0289855072463767,0.29839974470858155,0.7016002552914185,0.8549297921332342,1,190.1524291911628,0.6144843623042107,1,19,191.7857844372047,37,191.16979173163418,0.5135135135135135,0.0,1.0,inf
42,0,190.1020482337335,0.3981279634172097,1,38,191.5187677728245,43,191.11936850263737,0.8837209302325582,0.0,1.0,inf,0,195.38442921976093,0.6314340638928115,1,7,197.03373742825352,54,196.40125763753895,0.12962962962962962,4.8268944397023006e-11,0.9999999999517311,23.754232735164155,0,209.62836957490072,0.7796337308827788,1,28,211.42867803864647,41,210.64757902605925,0.6829268292682927,0.0006191994231847797,0.9993808005768152,7.3864637760319996,1,194.28431243961677,0.7578303086338565,1,6,196.06875445926562,8,195.3086853392888,0.75,0.0,1.0,inf
43,0,194.01892263675109,0.513091929955408,1,53,195.5506709322799,15,195.03626107843593,3.533333333333333,7.343015084870785e-13,0.9999999999992657,27.939856676134628,1,199.531938715023,0.6494275169679895,1,56,201.2005251152441,46,200.54924989747815,1.2173913043478262,0.0004575519677990636,0.9995424480322009,7.6891624322053795,0,213.92693186854012,0.548111331416294,1,40,215.49384336778894,15,214.94419445854146,2.6666666666666665,0.0027131715373388543,0.9972868284626611,5.90692016052883,0,198.56610754982103,0.8312050075037405,1,68,200.41646709491033,63,199.5836245592218,1.0793650793650793,3.2786300341314245e-09,0.99999999672137,19.5358401710421
44,0,198.04905355209485,0.6979260082589462,1,12,199.7657457528403,23,199.0665456725983,0.5217391304347826,0.0,1.0,inf,1,203.69691939256154,0.6485212467378005,1,54,205.3644699426368,31,204.71440400695428,1.7419354838709677,0.0014787038755341708,0.9985212961244658,6.515109536444882,1,217.9921987283742,0.581277106073685,1,46,219.5926106191473,36,219.00973114510998,1.2777777777777777,0.007985978424073559,0.9920140215759264,4.822049934919565,0,202.91483588761184,0.7480975831858814,1,60,204.68182252743281,61,203.93201432959177,0.9836065573770492,8.375744542377106e-12,0.9999999999916243,25.505681141578123
45,0,202.265636716038,0.9295025311876088,1,71,204.21458257443737,64,203.28372340346687,1.109375,9.478750173652628e-08,0.9999999052124983,16.17162817981165,1,207.8632306358777,0.6817806510953233,1,50,209.56266854295973,62,208.87955100520048,0.8064516129032258,1.0654286099143206e-05,0.9999893457139009,11.449537641803738,0,222.09069378266577,1.997690077754669,1,78,225.10739578097127,65,223.10820249572862,1.2,0.530332323940121,0.469667676059879,-0.12147846395179915,1,207.17975596280303,0.7794014350511134,1,24,208.98015134001616,69,208.19906259898562,0.34782608695652173,0.0,1.0,inf
46,0,206.71294899680652,0.5316175302723423,1,51,208.2630328682717,7,207.73019459913485,7.285714285714286,2.320366121466577e-13,0.999999999999768,29.091881224718012,0,212.0611096319044,0.6311093237018213,1,14,213.7110550738871,57,213.07863335730508,0.24561403508771928,2.921298758451485e-10,0.9999999997078701,21.953822631961966,0,227.60711805301253,1.4132797420024872,1,60,230.03912092582323,40,228.62437906267587,1.5,0.060231732975814745,0.9397682670241853,2.747433981152698,1,211.47892269992735,0.8139862692914903,1,50,213.31301481393166,62,212.4968505728757,0.8064516129032258,2.220446049250313e-15,0.9999999999999978,33.74106829612311
47,0,210.76151504344307,1.331314439419657,1,60,213.11122115748003,61,211.77872548543382,0.9836065573770492,1.3839152046557501e-11,0.9999999999861608,25.003519435914484,1,216.21010574209504,0.6482296916656196,1,14,217.8768017749535,8,217.22708151768893,1.75,1.0142778561483823e-07,0.9999998985722144,16.103918662027926,1,232.53792310063727,1.5630154066020623,0,88,235.12066864885855,96,233.55607181263622,0.9166666666666666,0.8686409776806701,0.1313590223193299,-1.8889956927682636,1,215.81140098930337,0.6807993192924187,1,56,217.51075040269643,46,216.8282645676518,1.2173913043478262,8.008260721226179e-12,0.9999999999919917,25.55054751684193
48,1,215.60978866601363,0.531292790081352,1,62,217.15979194501415,43,216.62725708284415,1.441860465116279,2.1320301080152149e-10,0.999999999786797,22.268776301565012,1,220.37527130823582,0.6795161608606577,1,58,222.07521212811116,58,221.3939549330389,1.0,0.00020240086546396974,0.999797599134536,8.505057923201067,1,237.6206990685314,1.8310110324528068,1,42,240.46894938242622,39,238.63632689567748,1.0769230769230769,0.0046199187224180704,0.9953800812775819,5.372747543063571,0,220.00905796093866,0.8144085895037279,1,60,221.84293832222465,70,221.02654455055017,0.8571428571428571,1.2652101588628284e-12,0.9999999999987348,27.39578287405804
49,1,219.65837367565837,0.6645259622018784,1,14,221.34164094156586,8,220.6759005615022,1.75,0.0,1.0,inf,1,224.57502368395217,1.1483051483519375,0,94,226.73990875668824,46,225.59071985667106,2.0434782608695654,0.9825152363973636,0.01748476360263638,-4.028786000992163,0,242.9670562496176,1.0812075753929093,1,14,245.067321177572,57,243.98459261690732,0.24561403508771928,9.532904740983117e-05,0.9999046709525902,9.258080660471158,0,224.34088202915154,0.39775818632915616,1,15,225.75812936981674,42,225.35853098891675,0.35714285714285715,0.0,1.0,inf
50,1,223.84030089434236,0.798023825394921,1,26,225.65702454198617,84,224.85779815062415,0.30952380952380953,0.0,1.0,inf,1,229.23867774638347,0.9147446285933256,1,43,231.17127992690075,93,230.25569460832048,0.46236559139784944,3.039259111048409e-08,0.9999999696074089,17.309066941315514,0,247.5654102669796,0.8479872031603009,1,24,249.43243427958805,90,248.5829576960532,0.26666666666666666,0.0005694536642275594,0.9994305463357724,7.470263524721768,1,228.25604028673843,0.5479896526085213,1,3,229.82322990894318,18,229.27359285159037,0.16666666666666666,0.0,1.0,inf
51,0,228.15556795161683,0.7812807406298816,1,6,229.95549676159862,26,229.17300989944488,0.23076923076923078,0.0,1.0,inf,1,233.6709765199339,0.6642774688079953,1,42,235.35411104536615,67,234.68862231925596,0.6268656716417911,4.976326614114512e-07,0.9999995023673386,14.513403162157978,1,251.93071260338183,0.7459855866618454,1,24,253.68163368827663,69,252.93369966035243,0.34782608695652173,0.00046018920278756426,0.9995398107972124,7.683412547515988,1,232.32293084764387,0.5145117795327678,1,10,233.85513504373375,44,233.33897625445388,0.22727272727272727,0.0,1.0,inf
52,1,232.4541258995887,0.9486029454274103,1,42,234.421070346958,67,233.47147895861417,0.6268656716417911,0.0,1.0,inf,1,237.85315499757417,0.5142581502441317,1,52,239.38632274756674,68,238.8710579816252,0.7647058823529411,9.644449709078629e-06,0.9999903555502909,11.549118323265914,0,256.1795023336308,0.6975060582626611,1,35,257.89643631177023,62,257.1971959352959,0.5645161290322581,0.0021155837326731763,0.9978844162673268,6.156306683286962,0,236.35330788604915,0.4645910683320835,1,50,237.83712736843154,7,237.37089245091192,7.142857142857143,2.3943247384750066e-10,0.9999999997605675,22.152749684949484
53,1,236.91912783146836,0.5148452111752704,1,42,238.45263296365738,39,237.936568594072,1.0769230769230769,0.0,1.0,inf,0,241.88544294645544,0.4645713152131066,1,9,243.36780860403087,7,242.90201694495045,1.2857142857142858,2.445653934923797e-08,0.9999999755434607,17.526368174282975,0,260.39455700619146,1.0482290595537052,0,96,262.4619334923336,89,261.41185001586564,1.0786516853932584,0.9516734542966276,0.048326545703372394,-2.980240955589899,0,240.33700924518052,1.3808234969619662,0,95,242.7354303440079,16,241.35299973841757,5.9375,0.9999932104031904,6.789596809581249e-06,-11.900112208569091
54,0,240.951165311737,0.481081313919276,1,58,242.4517176070949,58,241.9692132831551,1.0,3.22564197574593e-12,0.9999999999967744,26.459889123241048,0,245.86607863137033,1.0307199513772503,1,43,247.91556359024253,7,246.8839879364241,6.142857142857143,0.0008737099568489892,0.999126290043151,7.041888002673835,0,264.9595895947423,2.46389299526345,0,87,268.44196868431754,76,265.9771362337051,1.144736842105263,0.8235678792139732,0.17643212078602674,-1.5407097563044498,1,245.2337833342608,0.8126541232923046,1,16,247.06746102916077,10,246.2530804888811,1.6,0.0,1.0,inf
55,0,244.95095316390507,1.0807323168264702,1,86,247.04980535339564,59,245.96776182868052,1.4576271186440677,0.027258763563063004,0.972741236436937,3.574743034712127,0,250.4144139623968,0.9810098077869043,0,95,252.41473633225542,16,251.43248642771505,5.9375,0.9996362671584832,0.00036373284151675766,-7.918727112670762,0,270.9427129793912,1.1478551737964153,1,60,273.10771380516235,61,271.958249942516,0.9836065573770492,0.07348935574759285,0.9265106442524071,2.534284958358289,1,249.56549164955504,0.46483284572605044,1,42,251.04913691000547,67,250.58275463466998,0.6268656716417911,0.0,1.0,inf
56,0,249.54835389880463,1.114149745553732,0,95,251.68165660183877,16,250.5662118459586,5.9375,0.9983713277803824,0.0016286722196175573,-6.418360185365174,0,254.9135519390693,0.7648331617238,1,56,256.69683484954294,59,255.9306798132602,0.9491525423728814,9.695391344732851e-05,0.9999030460865527,9.241177852851658,0,275.6058882276993,0.8980809511849657,1,45,277.5228653466329,42,276.62324563239235,1.0714285714285714,0.007344462528854123,0.9926555374711459,4.906437081256991,1,253.54745078913402,0.5479730600491166,1,45,255.11483636172488,40,254.56505471200217,1.125,4.218847493575595e-15,0.9999999999999958,33.09921440995071
57,1,254.18139546643943,0.4130751002812758,1,37,255.61353186995257,54,255.1991755864583,0.6851851851851852,0.0,1.0,inf,1,259.19834516814444,0.5480098007246852,1,53,260.7621360796038,55,260.2128146761097,0.9636363636363636,6.197386374007241e-05,0.9999380261362599,9.688735838592727,1,280.02122307755053,0.7481686943210661,1,62,281.7881737668067,43,281.038455247879,1.441860465116279,0.08118081603176741,0.9188191839682326,2.42641038648189,1,257.6139822396217,1.447086305823177,1,53,260.0798860959476,55,258.6309327313211,0.9636363636363636,1.1013412404281553e-13,0.9999999999998899,29.83707746239212
58,1,258.11226214352064,0.5311936297221109,1,46,259.6623468050966,40,259.12971317768097,1.15,4.440892098500626e-16,0.9999999999999996,35.35050620855721,0,263.26075731636956,0.7151032651308924,1,28,264.9935640596086,41,264.27789743745234,0.6829268292682927,1.4793226077447486e-07,0.9999998520677392,15.726511217495247,1,284.28643036226276,0.5785946412943304,1,42,285.88682368502486,67,285.3067574411398,0.6268656716417911,0.006129164282440702,0.9938708357175593,5.088548846004398,1,262.5794309854973,0.9809477832168341,1,54,264.5783741971245,78,263.5955802933313,0.6923076923076923,1.9984014443252818e-15,0.999999999999998,33.84642881178093
59,1,262.1607357459143,0.7809820745605975,1,55,263.9606045066612,95,263.17832149588503,0.5789473684210527,2.90878432451791e-14,0.9999999999999709,31.168456065915976,0,267.49307497392874,0.7806608899263665,1,15,269.29246729100123,42,268.5106026499998,0.35714285714285715,2.3835642348757347e-09,0.9999999976164358,19.854668889451734,0,288.3849771694513,0.9800743031082675,1,54,290.40174316766206,80,289.42017158295494,0.675,0.03867359090943523,0.9613264090905648,3.2131570453115126,1,267.07627010170836,1.0963091811863706,1,14,269.1932010774035,8,268.0951342693297,1.75,0.0,1.0,inf
60,1,273.49205769156106,0.6805208011064678,1,58,275.190308440011,6,274.5084752457915,9.666666666666666,7.644640476200948e-11,0.9999999999235536,23.294431211894693,1,278.8235637356993,0.5152311858255416,1,72,280.3553120311117,51,279.8389154151082,1.411764705882353,0.03382259436291435,0.9661774056370857,3.352218415642329,0,299.93226361321285,0.6977426998782903,1,38,301.6481807040982,43,300.9488273401512,0.8837209302325582,0.002695976466811967,0.997304023533188,5.913295197741172,1,278.72352043690626,1.1641309012193233,0,94,280.9056155565195,46,279.7399861885933,2.0434782608695654,0.9918475126211607,0.00815248737883936,-4.801246297807062
61,1,277.6888727878686,0.9647471173666418,0,97,279.6720352836419,61,278.7060863903025,1.5901639344262295,0.9951214578036608,0.004878542196339203,-5.318018352875342,1,282.8534576143138,0.4651544253574684,1,54,284.3376429232303,78,283.87137679592706,0.6923076923076923,5.4154876476530944e-06,0.9999945845123523,12.12624221109546,0,304.14651907712687,1.3790358455153182,1,60,306.5301080017816,70,305.1491023816634,0.8571428571428571,0.07995670874281913,0.9200432912571809,2.4429353771606865,0,283.42147528450005,0.6449052524985746,1,22,285.07062112295534,31,284.4243469836656,0.7096774193548387,0.0,1.0,inf
62,1,282.1704830885865,0.8980295932851732,1,75,284.0871903806692,70,283.1879613819765,1.0714285714285714,1.7447974033357738e-06,0.9999982552025967,13.258870365491473,1,286.8365920607466,0.9140935678733513,1,43,288.7691879203776,97,287.853951835772,0.44329896907216493,1.8852691296977753e-08,0.9999999811473087,17.786610140015515,0,309.02806593093555,1.0814659452298656,0,95,311.1283806366846,16,310.0452874345938,5.9375,0.8903193723018975,0.10968062769810251,-2.0940074854068644,0,287.56915149558336,0.8978715687990189,1,7,289.48612505896017,54,288.5866096408572,0.12962962962962962,0.0,1.0,inf
63,0,286.58576025953516,0.5979941168334335,1,62,288.2020942978561,17,287.60309514566325,3.6470588235294117,1.037923080815517e-09,0.9999999989620769,20.686044157171153,1,291.26760254008695,0.7149638085393235,1,69,293.00093629490584,61,292.2848232536344,1.1311475409836065,0.004188657182987776,0.9958113428170122,5.471177623619238,1,313.6263563435059,1.2981004671892151,1,17,315.94330083031673,82,314.6436311805155,0.2073170731707317,0.00018996680582406,0.9998100331941759,8.568471222404046,0,291.98446027142927,0.631289076525718,1,6,293.6346794908168,26,293.00188839202747,0.23076923076923078,0.0,1.0,inf
64,0,290.70342762907967,0.7472715105395764,1,80,292.4676954584429,60,291.7190297773341,1.3333333333333333,0.00019300088010365535,0.9998069991198963,8.552622789440049,0,295.50005767901894,0.6803363076178357,1,78,297.1993648208445,34,296.51792115694843,2.2941176470588234,0.6289097792515546,0.3710902207484455,-0.5275425955467696,0,318.44138122850563,0.4481379584176466,1,7,319.9085066136904,54,319.4588105342118,0.12962962962962962,3.3446211460175235e-05,0.9999665537885398,10.305538590819108,0,296.13489440409467,0.7310779558029026,1,55,297.88351188774686,60,297.1507651938591,0.9166666666666666,1.9051427102567686e-13,0.9999999999998095,29.289049289629002
65,1,294.96629891742487,2.1644354932941496,1,50,298.1491537395632,62,295.9835176556371,0.8064516129032258,3.552713678800501e-15,0.9999999999999964,33.27106466687737,1,299.70153726183344,0.816061525256373,0,82,301.5330456761876,40,300.7164417321328,2.05,0.7397550937291494,0.2602449062708506,-1.0446960421434104,1,322.4067679498112,1.1477927541127428,1,53,324.57349953823723,40,323.42415735439863,1.325,0.02265537823487218,0.9773446217651278,3.7644420511033347,1,300.38174477941357,1.014413014287129,1,55,302.4153091708431,95,301.39925151714124,0.5789473684210527,2.220446049250313e-16,0.9999999999999998,36.04365338911715
66,0,300.6476572480751,0.5812522172927856,1,45,302.2476507690735,92,301.6650458625518,0.4891304347826087,0.0,1.0,inf,1,304.02995195274707,0.5476692579686642,1,16,305.59626809484325,10,305.04764713463373,1.6,1.480143979604165e-07,0.999999851985602,15.725956136383294,0,327.07331899530254,0.997148448950611,1,59,329.08983254944906,65,328.09047965949867,0.9076923076923077,0.06667197553767046,0.9333280244623295,2.638972011628493,0,304.91344487748574,0.9994232107419521,1,62,306.93203408271074,17,305.9309804546647,3.6470588235294117,4.2634330343904736e-07,0.9999995736566966,14.668020512260375
67,0,304.747487608809,0.41395292605739087,1,35,306.17986341938376,62,305.7644926190842,0.5645161290322581,0.0,1.0,inf,0,308.09530493582133,0.4810809188056737,1,86,309.59529347904027,59,309.11301394493785,1.4576271186440677,0.5024584972100659,0.49754150278993414,-0.009834068092985399,0,331.5870374920778,1.0439663502620533,0,86,333.6545198545791,59,332.60854106303304,1.4576271186440677,0.7725688683525649,0.22743113164743511,-1.2228736802398357,0,309.42855043383315,0.06460315710864961,1,96,310.51241321489215,89,310.44579248072114,1.0786516853932584,0.06713941214966035,0.9328605878503397,2.6314845302334855
68,1,308.6782922614366,0.49815703998319805,1,16,310.1948666549288,10,309.69553470332175,1.6,0.0,1.0,inf,0,312.09428607323207,0.6648266038391739,1,55,313.77723017928656,60,313.11161187302787,0.9166666666666666,6.321342023318799e-05,0.9999367865797668,9.668930718473447,1,336.15242761105765,1.265747728291899,1,55,338.4379453820875,95,337.1701670397306,0.5789473684210527,0.051386747464740146,0.9486132525352599,2.9156208761797044,0,313.01053627964575,0.5482413064455613,1,45,314.5776571611641,42,314.0278557584388,1.0714285714285714,2.886579864025407e-15,0.9999999999999971,33.47870403165562
69,1,312.69347050902434,0.7645819028839469,1,40,314.4766250245739,93,313.7108516173903,0.43010752688172044,0.0,1.0,inf,1,316.27580361359287,0.582011524704285,1,12,317.8761507142335,9,317.29288329032715,1.3333333333333333,4.858074198477169e-08,0.999999951419258,16.840038591446532,0,340.93456049845554,0.7455838094465435,1,28,342.70109992916696,18,341.9538864926435,1.5555555555555556,0.0004903440991682606,0.9995096559008317,7.619912705759302,0,317.0758754356066,0.564801872940734,1,43,318.65962009341456,7,318.09325456863735,6.142857142857143,8.93285445613401e-13,0.9999999999991067,27.743870217166474
70,1,316.97654087655246,0.7643488168250769,1,58,318.75888749212027,58,317.99329660309013,1.0,3.22564197574593e-12,0.9999999999967744,26.459889123241048,1,320.37508207396604,0.5140685209771618,1,10,321.9077492816141,44,321.39253350324,0.22727272727272727,4.0171599380300904e-10,0.999999999598284,21.635275759661674,1,345.2001679800451,0.9309452943271026,0,97,347.14964519569185,61,346.2169640028151,1.5901639344262295,0.9448687397239827,0.055131260276017384,-2.8413291256664923,1,321.1576368866954,0.5647477494785562,1,53,322.7414905813057,40,322.17518945154734,1.325,2.5710544804269375e-12,0.999999999997429,26.68670499750231
71,0,321.2571871491382,0.7979479735950008,1,71,323.0738780066604,69,322.2747274670983,1.0289855072463767,6.991401080291837e-08,0.9999999300859892,16.47599969720696,0,324.4060647410806,0.6647780111525208,1,59,326.0897246977547,65,325.42378915753216,0.9076923076923077,0.00011946215401259508,0.9998805378459874,9.032391470286926,1,349.64942988730036,1.162871841341257,1,43,351.8311816989444,93,350.66672921797726,0.46236559139784944,0.009199508009818946,0.990800491990181,4.679363188742155,1,325.2397056951886,0.5479967637220398,1,15,326.8066365524428,42,326.257134606014,0.35714285714285715,0.0,1.0,inf
72,1,325.57241944107227,0.5147326186997816,1,14,327.105898499256,57,326.58995027758647,0.24561403508771928,0.0,1.0,inf,0,328.58828746550716,1.1137922152411193,0,62,330.7212733293418,17,329.606530202087,3.6470588235294117,0.08496119884186215,0.9150388011581378,2.3767718019574433,1,354.33041883585975,1.3140158988535404,1,33,356.6630468535004,25,355.3471678465139,1.32,0.0010878878924472923,0.9989121121075527,6.822428695815434,0,329.3048955181148,0.7985729603096843,1,40,331.1221398563357,15,330.321983491187,2.6666666666666665,1.509903313490213e-14,0.9999999999999849,31.824145683941033
73,0,329.6056507959729,0.28095876588486135,1,87,330.9049913599156,76,330.6226451394614,1.144736842105263,0.0220940473120399,0.9779059526879601,3.7901052826696726,0,333.2199949116912,0.49727131298277527,1,51,334.73563893628307,7,334.23785246373154,7.285714285714286,0.0102016527584321,0.9897983472415679,4.574951490421746,1,359.16100517765153,0.8312397729605436,1,56,361.01110832812265,46,360.17835507623386,1.2173913043478262,0.03669669129762276,0.9633033087023772,3.267681728897517,0,333.6206887968583,0.7312284741783515,1,77,335.3704314145725,72,334.637699337909,1.0694444444444444,6.558715747173594e-07,0.9999993441284253,14.237300181543956
74,1,333.40294494340196,0.4643749699462205,1,41,334.88668738887645,7,334.421002791496,5.857142857142857,0.0,1.0,inf,0,337.24998716055416,0.6817838115384802,1,80,338.9353225714294,60,338.2523792554857,1.3333333333333333,0.12349366013500129,0.8765063398649987,1.9597541176843372,1,363.5093309482327,0.5114816608838737,1,32,365.0441579549806,16,364.53055047022644,2.0,0.0008588430576496053,0.9991411569423504,7.059065144148796,1,337.8704140319023,1.7294645262882113,1,88,340.6189323551953,96,338.8878077821573,0.9166666666666666,2.777447804180877e-05,0.9999722255219582,10.491365240125521
75,0,337.38508265069686,0.5974611793644726,1,7,339.00160592328757,54,338.4030255358666,0.12962962962962962,0.0,1.0,inf,1,341.43383595650084,0.5645387622062117,1,26,343.0172309851041,84,342.4514351384714,0.30952380952380953,4.706837142265385e-10,0.9999999995293163,21.47683476670066,0,367.54269346338697,0.8814555947901681,1,55,369.442730757175,60,368.5590691412799,0.9166666666666666,0.036584178626795305,0.9634158213732047,3.270869247503716,0,343.11693690158427,0.9979907191591337,1,87,345.1338064058218,85,344.13422042981256,1.0235294117647058,0.00012588108349731453,0.9998741189165027,8.980046989415383
76,0,341.50178844155744,1.1311271013692021,1,87,343.6503069229657,85,342.5179586876184,1.0235294117647058,0.012894526052532718,0.9871054739474673,4.337974012594448,0,345.5163954308955,0.7619002280989662,1,77,347.2825769361807,72,346.519458339666,1.0694444444444444,0.01315793608946747,0.9868420639105325,4.317484928837727,0,371.9399487369228,0.7145825744373724,1,12,373.673616318265,3,372.9574211043073,4.0,4.1211504947846755e-05,0.9999587884950522,10.096751881929661,1,347.6325860620709,0.4805515368934721,1,14,349.1332292215666,57,348.65066010761075,0.24561403508771928,0.0,1.0,inf
77,0,346.1497992693912,0.5645075524225831,1,50,347.7324685708154,7,347.16660990950186,7.142857142857143,1.0236256287043943e-13,0.9999999999998976,29.910255346120405,0,349.78080666740425,0.5805916751269251,1,62,351.3802471028175,17,350.7990260954248,3.6470588235294117,0.08496119884186215,0.9150388011581378,2.3767718019574433,1,376.1718385432614,0.9147529248148203,1,54,378.1055212159408,31,377.1891888368409,1.7419354838709677,0.02388092019247212,0.9761190798075279,3.7105047651651324,0,351.63126813818235,0.6146945348009467,1,78,353.2644416561816,65,352.64819295099005,1.2,6.340557109130174e-06,0.9999936594428909,11.968537580695905
78,1,350.2315366216935,0.5144110389519483,1,4,351.76449735974893,22,351.24870755756274,0.18181818181818182,0.0,1.0,inf,1,353.8795640422031,0.5310557533521205,1,32,355.42934371659067,16,354.8976744333049,2.0,1.0045277176073952e-05,0.9999899547228239,11.50839792131351,1,380.6053940063575,0.9960189693374559,1,72,382.62073857465293,51,381.6229268180905,1.411764705882353,0.2906267393794941,0.7093732606205059,0.8923420873926361,1,355.76264294295106,0.814814317272976,1,43,357.59616656403523,93,356.7799059279496,0.46236559139784944,0.0,1.0,inf
79,1,354.262921065907,0.6144314240664244,1,69,355.89643433643505,61,355.28059056890197,1.1311475409836065,2.2092953910757274e-08,0.9999999779070461,17.628007084733607,1,357.92831102688797,0.6479815933853388,1,66,359.5951895780163,59,358.94593667809386,1.11864406779661,0.0021130508000235526,0.9978869491999764,6.157507212537349,1,385.1190682563465,0.7128810462309048,1,41,386.85349751543254,7,386.13827731239144,5.857142857142857,0.0028922245391393986,0.9971077754608606,5.842832921124225,0,360.0946918008849,2.180821047630161,1,54,363.2943224977935,80,361.11199705756735,0.675,1.3322676295501878e-15,0.9999999999999987,34.2518939198891
80,0,365.4119720896706,1.0970108095789328,1,55,367.52557230519596,60,366.4271882631583,0.9166666666666666,2.4424906541753444e-13,0.9999999999997558,29.04058793033045,0,369.1257862703642,0.8310055015608668,1,22,370.9745256699389,31,370.14226189872716,0.7096774193548387,7.673900925819765e-08,0.9999999232609907,16.382855585842044,0,396.38281262968667,0.7976161222904921,1,14,398.1985035876278,7,397.39933685050346,2.0,5.739027318463208e-05,0.9999426097268154,9.765578333791822,1,372.82583454682026,0.763558694627136,1,66,374.6072128675878,59,373.84208617545664,1.11864406779661,1.537228788706102e-09,0.9999999984627712,20.29328452786006
81,1,370.02519186143763,0.4807743513956666,1,88,371.5244677143637,96,371.04228497017175,0.9166666666666666,0.01494838990291325,0.9850516100970867,4.188090440602142,1,373.47308804257773,1.3476435000775382,1,87,375.8393250934314,89,374.49048100272194,0.9775280898876404,0.03684931248027046,0.9631506875197295,3.2633729155225843,1,400.6970019603614,0.7479277070378885,1,6,402.4638720571529,8,401.71442375995684,0.75,1.813364598268752e-05,0.9999818663540173,10.917723317416398,1,377.1087567664217,0.6645844313316047,1,75,378.7895596411545,70,378.1232594595058,1.0714285714285714,2.0204937944967583e-07,0.9999997979506206,15.414753514648337
82,0,374.02286771684885,0.531613974715583,1,14,375.5727224529255,7,375.03994423314,2.0,0.0,1.0,inf,1,378.33815926813986,0.4147604309255257,1,46,379.7715168055147,36,379.35552101850044,1.2777777777777777,6.916302063564306e-05,0.9999308369793644,9.578975056640086,0,404.9619457392255,1.0478881218004972,1,51,407.0288122014608,7,405.97941810660996,7.285714285714286,0.01224926728009601,0.987750732719904,4.389964249766163,0,381.28745040996,0.6976759345270693,1,37,383.004951300798,52,382.3052471225383,0.7115384615384616,0.0,1.0,inf
83,1,378.0712800848996,0.41469801135826856,1,66,379.50473243696615,59,379.0887966991868,1.11864406779661,2.135081000886885e-09,0.999999997864919,19.964761249324955,0,382.2701005114941,0.48135311587248,1,71,383.77010327694006,64,383.2875539159868,1.109375,0.005417972541717053,0.994582027458283,5.2126009003209095,1,409.5272848951863,1.2492294333642349,1,82,411.79483884270303,40,410.5445518308552,2.05,0.610372220277885,0.389627779722115,-0.4488770958350105,1,385.5026307118824,0.7981514300918207,1,40,387.3196261614794,93,386.51987196854316,0.43010752688172044,0.0,1.0,inf
84,0,382.00330784660764,0.4814427946694195,1,37,383.5034046365181,52,383.0207478189841,0.7115384615384616,0.0,1.0,inf,1,386.2686383903492,1.0644364414038137,1,88,388.35197732038796,96,387.2862719427794,0.9166666666666666,0.022081062009328578,0.9779189379906714,3.7907064626087266,0,414.29303736414295,0.9479578107129782,1,50,416.2591936645331,7,415.3097200044431,7.142857142857143,0.010610425386038957,0.989389574613961,4.535251116901955,0,389.8177670040168,0.7313671405427158,1,62,391.5681397441076,17,390.83521606284194,3.6470588235294117,4.2634330343904736e-07,0.9999995736566966,14.668020512260375
85,1,386.0020321942866,0.596253082389012,1,6,387.61861946678255,8,387.0212076700991,0.75,0.0,1.0,inf,1,390.8514775680378,0.614417597069405,1,3,392.48422560526524,18,391.8684730967507,0.16666666666666666,1.0340173162148858e-09,0.9999999989659827,20.689814313143476,0,418.7574245808646,0.998096595518291,1,62,420.7743857392343,16,419.77466860297136,3.875,0.06294626927705038,0.9370537307229496,2.700459130074699,1,394.06629125319887,1.1470449033658952,1,74,396.23320575489197,60,395.0846193230245,1.2333333333333334,7.423533470163335e-07,0.999999257646653,14.113439755859998
86,0,390.1172671726672,1.3803470532875508,1,24,392.5339242920745,90,391.1521222287556,0.26666666666666666,0.0,1.0,inf,1,394.98247390426695,0.6787339397706091,1,42,396.6823894402478,39,396.0024746628478,1.0769230769230769,1.4081977078306274e-05,0.9999859180229217,11.170600717522417,0,423.272414779407,0.8645339424256235,1,41,425.1561241977615,22,424.29007361573167,1.8636363636363635,0.0033662512283817447,0.9966337487716183,5.690583619128211,0,398.73336259415373,0.8647998186061159,1,24,400.6151587315835,90,399.7488450388191,0.26666666666666666,0.0,1.0,inf
87,0,395.0322859736625,0.6461204604711384,1,28,396.6821847985266,41,396.03487836464774,0.6829268292682927,0.0,1.0,inf,1,399.1807001589332,0.6481854448793456,1,17,400.84781258623116,82,400.1983202792471,0.2073170731707317,3.724998087761833e-11,0.99999999996275,24.01336968441839,1,427.65439936099574,0.6312653728527948,1,15,429.3046470247209,42,428.6718223458156,0.35714285714285715,9.4667692950412e-05,0.9999053323070496,9.265043095330244,0,403.1136974005494,0.7115781346801668,1,38,404.84689051355235,43,404.1337755910354,0.8837209302325582,0.0,1.0,inf
88,0,399.18069462804124,0.6815116143552586,1,7,400.8808187561808,54,400.1981349955313,0.12962962962962962,0.0,1.0,inf,1,403.3461699221516,0.5647592063760385,1,62,404.9296238149982,43,404.36359369708225,1.441860465116279,0.004148701131374222,0.9958512988686258,5.480802643251552,0,431.8030873235548,1.1810711212456226,1,77,434.0030107606435,72,432.8204467034666,1.0694444444444444,0.5118081217993365,0.48819187820066345,-0.047241271080798286,1,407.34666058793664,1.0138310892507434,1,43,409.3791911044391,97,408.36349730205256,0.44329896907216493,0.0,1.0,inf
89,1,403.3803324359469,0.5808761190855876,1,10,404.97954531619325,44,404.39731453254353,0.22727272727272727,0.0,1.0,inf,0,407.42822924931534,0.6148774480680004,1,54,409.0615343225654,80,408.4455586045515,0.675,4.2652145244570505e-06,0.9999957347854755,12.365013814244357,1,436.5045514990343,0.7647814088268206,1,54,438.2849504633341,78,437.5187760691624,0.6923076923076923,0.03792590972322829,0.9620740902767717,3.233456952244311,1,411.8786858213134,0.7467749186325818,1,15,413.6449546350632,56,412.89600016432814,0.26785714285714285,0.0,1.0,inf
90,1,407.47975114302244,0.6632649272214621,1,53,409.16120152303483,40,408.49668306694366,1.325,1.603162047558726e-13,0.9999999999998397,29.46162825022417,0,411.56089116306975,0.9308271710760891,1,45,413.51006734219845,42,412.57802219770383,1.0714285714285714,2.4824443754511982e-05,0.9999751755562455,10.603656930198369,0,440.78322207101155,1.314492737641558,1,62,443.1166619390715,17,441.80063241382595,3.6470588235294117,0.06354761696320677,0.9364523830367932,2.690309176608302,1,416.1422923182836,0.5145828905515373,1,54,417.67617670923937,31,417.15990098181646,1.7419354838709677,3.782951729647266e-11,0.9999999999621705,23.99793143713494
91,1,411.6598891300382,1.047726541873999,1,54,413.7262708522612,31,412.6773844109848,1.7419354838709677,6.292744103575387e-13,0.9999999999993707,28.0942089688659,1,416.0086285296129,0.6480704820714891,1,41,417.6752783403499,7,417.0260483539896,5.857142857142857,0.000471734619812314,0.9995282653801877,7.658622130737121,1,445.6149556702003,0.7813866169890389,1,58,447.4153198375134,58,446.6323683834635,1.0,0.05440755917027229,0.9455924408297277,2.855308553029099,1,420.17424051475246,0.8312583407387137,1,32,422.0243136405479,16,421.19157382065896,2.0,0.0,1.0,inf
92,1,416.2252650266746,0.4961762035964057,1,17,417.7417904327158,82,417.24432791012805,0.2073170731707317,0.0,1.0,inf,0,420.17380673775915,0.6481633214280009,1,41,421.8405351656256,22,421.1911471547792,1.8636363636363635,7.872987349943905e-05,0.9999212701265006,9.449409154560728,0,449.91329791478347,0.9649596603121608,1,22,451.8980943833012,31,450.9307568501681,0.7096774193548387,0.00023406338474862842,0.9997659366152514,8.359684513510583,1,424.52259630989283,0.8977593714371324,1,41,426.4391104171518,7,425.5400078379316,5.857142857142857,1.8074430840897548e-13,0.9999999999998193,29.341693023114434
93,0,420.240287620225,0.7978654057951644,1,56,422.05692040384747,59,421.257871394977,0.9491525423728814,5.893063814710331e-13,0.9999999999994107,28.159830174224414,1,424.3391828715103,0.41348043305333704,1,55,425.77245981642045,95,425.35779815074056,0.5789473684210527,9.68580012417064e-07,0.9999990314199876,13.847433774148573,0,454.3969866319094,1.2115722089074552,0,87,456.62909925275017,85,455.41576467629056,1.0235294117647058,0.8364515521029434,0.16354844789705664,-1.632059337502053,1,428.9378908635117,0.5146038287784904,1,58,430.47148053883575,58,429.9552763175452,1.0,3.183231456205249e-12,0.9999999999968168,26.47312425389926
94,0,424.5554171963595,1.2811752593843266,1,62,426.85534916678444,16,425.5729488229845,3.875,1.103068747454472e-09,0.9999999988969313,20.625169769813024,0,428.27117902832106,0.6979232428129762,1,6,429.98781829094514,26,429.28853998857085,0.23076923076923078,1.0034721942275837e-09,0.9999999989965278,20.719799655864225,0,459.1270401943475,1.6124561186879873,1,45,461.7605771685485,60,460.146421101992,0.75,0.008803722609021736,0.9911962773909783,4.723737918861753,1,432.9715018721763,0.48109948670025915,1,15,434.470571503276,19,433.9877005625749,0.7894736842105263,0.0,1.0,inf
95,0,429.3554190925788,0.9812041778350249,1,9,431.3537408730481,7,430.37135151191615,1.2857142857142858,0.0,1.0,inf,0,432.4866018977482,0.6462002628250048,1,60,434.1534634612035,40,433.50583189202007,1.5,0.003206449695075775,0.9967935503049242,5.739379366549897,1,464.2599178114906,0.5802361200330779,1,15,465.85919153119903,56,465.2772345248377,0.26785714285714285,0.00010912103556226516,0.9998908789644377,9.12294374680106,0,436.9687099753646,0.5813565134303644,1,28,438.56911633512937,41,437.98603103437927,0.6829268292682927,0.0,1.0,inf
96,0,433.85251499840524,0.5481038253055885,1,53,435.4190737081226,57,434.86980405752547,0.9298245614035088,5.706546346573305e-14,0.9999999999999429,30.494577304221878,0,436.6514059830224,0.7980246155057102,1,58,438.4682698773686,58,437.6689621034311,1.0,0.00020240086546396974,0.999797599134536,8.505057923201067,0,468.35724229970947,0.13188087800517678,1,56,469.50786566664465,59,469.3744902724866,0.9491525423728814,0.041657159524055354,0.9583428404759446,3.135732333834311,1,441.0671746098669,0.7312178073916584,1,69,442.8177239423385,61,442.08479710051324,1.1311475409836065,1.10913528361678e-08,0.9999999889086472,18.317100044902137
97,1,437.91865731368307,0.530887852422893,1,53,439.4679198531667,55,438.93568642262835,0.9636363636363636,6.439293542825908e-14,0.9999999999999356,30.373772466136572,1,440.9667915586615,0.5813221430871636,1,24,442.56655712937936,69,441.98417345713824,0.34782608695652173,1.522698189759808e-09,0.9999999984773018,20.302781949395616,0,472.0061708544381,1.198013316723518,1,71,474.22266868513543,64,473.0232758150669,1.109375,0.2878847459800261,0.7121152540199739,0.9056795594652362,1,445.3174418687122,1.3625906369416043,1,72,447.69933203060646,51,446.3350667296909,1.411764705882353,9.946622131495886e-07,0.9999990053377869,13.820861647034711
98,1,441.9672865701141,0.48094936343841255,1,52,443.4666991143022,68,442.9843713826267,0.7647058823529411,1.2878587085651816e-14,0.9999999999999871,31.983210378570725,1,445.0653703658609,0.5314839996863157,1,15,446.6150311268866,42,446.08261399297044,0.35714285714285715,2.3835642348757347e-09,0.9999999976164358,19.854668889451734,0,476.7222127846908,0.7964645192259923,1,9,478.5378436932806,7,477.7399142875802,1.2857142857142858,2.77565023483195e-05,0.9999722434976517,10.49201266947428,0,450.19804492162075,0.5809318227693439,1,78,451.7978895045817,34,451.21516489447095,2.2941176470588234,0.004242300182648817,0.9957576998173512,5.458398336659204
99,1,445.9650924007874,0.6809814423322678,1,45,447.6653765287483,40,446.98295034794137,1.125,2.220446049250313e-16,0.9999999999999998,36.04365338911715,0,449.11477236193605,0.4462412701686844,1,28,450.58081211929675,18,450.13330862892326,1.5555555555555556,2.304515531625917e-06,0.9999976954844684,12.980637780595899,1,481.0363487821305,0.9812650172971189,1,58,483.0363839425845,6,482.0537693965016,9.666666666666666,0.0328276318978703,0.9671723681021297,3.3831061332819203,0,454.2958545447327,0.6146510781254619,1,12,455.9296301358845,23,455.31334706034977,0.5217391304347826,0.0,1.0,inf
