,self_acceptUp,self_cue_times,self_decision_times,self_decisions,self_punishment_values,self_response_times,self_reward_values,self_trial_times,self_punishment_reward_ratio,self_prob_reject,self_prob_accept,self_SV,harm_other_acceptUp,harm_other_cue_times,harm_other_decision_times,harm_other_decisions,harm_other_punishment_values,harm_other_response_times,harm_other_reward_values,harm_other_trial_times,harm_other_punishment_reward_ratio,harm_other_prob_reject,harm_other_prob_accept,harm_other_SV,harm_self_acceptUp,harm_self_cue_times,harm_self_decision_times,harm_self_decisions,harm_self_punishment_values,harm_self_response_times,harm_self_reward_values,harm_self_trial_times,harm_self_punishment_reward_ratio,harm_self_prob_reject,harm_self_prob_accept,harm_self_SV,other_acceptUp,other_cue_times,other_decision_times,other_decisions,other_punishment_values,other_response_times,other_reward_values,other_trial_times,other_punishment_reward_ratio,other_prob_reject,other_prob_accept,other_SV
0,1,0.004495001689065248,1.4075154784950428,1,58,2.437036791234277,58,1.0271469973376952,1.0,0.014566781572705412,0.9854332184272946,4.214337658455023,0,0.0037392504164017737,1.2255880085285753,0,9,2.252682462800294,7,1.0259622100857086,1.2857142857142858,0.8592769041539934,0.14072309584600665,-1.8092971262160442,0,0.0034492757404223084,1.406734048272483,0,50,2.4365828663576394,7,1.0280054644681513,7.142857142857143,0.9909154518826617,0.009084548117338262,-4.692054253541715,1,0.003627053170930594,1.123499164066743,0,75,2.152469367021695,70,1.0271149974432774,1.0714285714285714,0.9131133239284499,0.0868866760715501,-2.352255299808964
1,0,4.937049828236923,1.4497233784059063,0,14,7.407166639808565,7,5.955091069394257,2.0,0.9433675448243568,0.05663245517564322,-2.8128737340418604,0,4.754082558210939,1.015812308236491,0,53,6.7892303267726675,15,5.772199256054591,3.533333333333333,0.9999274048022437,7.259519775625604e-05,-9.530539187096435,1,4.93725763016846,2.0664168302319013,1,56,8.023507697333116,46,5.955281488713808,1.2173913043478262,0.8299848312056903,0.17001516879430972,-1.5855197636963625,1,4.653173365339171,1.032120022631716,0,98,6.705645734793507,73,5.671798111288808,1.3424657534246576,0.9990041423004737,0.0009958576995262635,-6.91090982865317
2,0,9.908841697557364,1.5988035188638605,1,45,12.526576529606245,92,10.925816669652704,0.4891304347826087,1.0175553732949538e-09,0.9999999989824446,20.705862778146304,1,9.290232595987618,1.2818932577501982,1,43,11.575347969541326,97,10.292060147214215,0.44329896907216493,3.1221506872070037e-06,0.9999968778493128,12.676985348638416,1,10.52396833820967,1.1663553587859496,0,62,12.693819589912891,43,11.526330406719353,1.441860465116279,0.9250045011655349,0.07499549883446512,-2.5123705074306475,0,9.206211856915615,1.5825866684317589,1,53,11.792631010059267,57,10.208378765324596,0.9298245614035088,0.5541677458514371,0.4458322541485628,-0.21752466176332505
3,1,15.027059293875936,1.2155870445421897,0,54,17.263336857256945,31,16.04538695415249,1.7419354838709677,0.9925128947904757,0.007487105209524341,-4.887057769265461,0,14.076966928667389,1.3982378708315082,1,54,16.49570094846422,80,15.096178339910693,0.675,0.0022146706431239727,0.997785329356876,6.110434453737295,1,15.193780478904955,1.1324713896610774,0,97,17.346460413304158,61,16.212019645550754,1.5901639344262295,0.9891193497221713,0.010880650277828693,-4.509828993688327,0,14.29365777305793,0.8117689400096424,0,95,16.128491152252536,16,15.314836982113775,5.9375,0.9999999928316933,7.16830675451219e-09,-18.753596360027824
4,0,19.76379236235516,1.5825230636401102,0,50,22.366341452579945,7,20.781990442657843,7.142857142857143,0.9999973823526869,2.617647313111376e-06,-12.85323199805389,1,18.996745884243865,1.2996034380048513,0,75,21.31541456101695,70,20.014512558234856,1.0714285714285714,0.7204137741382162,0.27958622586178383,-0.946514987825612,0,19.847085399494972,1.5158048020093702,1,68,22.382768080336973,63,20.86520683800336,1.0793650793650793,0.7738995422339552,0.22610045776604482,-1.2304626708713196,0,18.62910981744062,1.0660269052023068,1,14,20.715846204431728,57,19.647443403606303,0.24561403508771928,0.0001786318749200655,0.9998213681250799,8.630004786617429
5,1,24.866971574549098,1.3827147471602075,1,19,27.269755014916882,37,25.885315432329662,0.5135135135135135,0.0007882993439293218,0.9992117006560707,7.14484405194367,1,23.816469373297878,0.6157310836715624,1,14,25.451457695337012,57,24.834486120729707,0.24561403508771928,9.214159905512886e-05,0.9999078584009449,9.292091898137942,1,24.88337528874399,1.9165185188758187,1,53,27.803444218996447,40,25.885093803226482,1.325,0.8632254273323561,0.1367745726676439,-1.842341754968441,0,23.21573321701726,0.8811736149946228,0,77,25.117910239030607,72,24.235074208234437,1.0694444444444444,0.9142416860665329,0.08575831393346714,-2.366561926429692
6,0,29.770339309819974,1.4324252465739846,1,14,32.22285576805007,57,30.788567809795495,0.24561403508771928,1.0106725167879915e-07,0.9999998989327483,16.10747958241718,1,27.952776803285815,1.2155558347003534,0,74,30.18777555489214,60,28.970887970237527,1.2333333333333334,0.9595653291188211,0.04043467088117892,-3.1667927926964943,1,30.304100810026284,1.1162592799519189,0,87,32.44059707905399,89,31.32228940888308,0.9775280898876404,0.6805540536818502,0.31944594631814976,-0.7563191738375753,1,27.61866875574924,1.0992945794132538,0,74,29.73830738576362,60,28.63727335364092,1.2333333333333334,0.9869065045503872,0.01309349544961283,-4.322459731716223
7,0,34.72360993910115,0.9991253354237415,1,7,36.74243656115141,54,35.74167409382062,0.12962962962962962,4.464380376489885e-08,0.9999999553561962,16.924550268072537,1,32.6892432057648,1.0994407519465312,0,32,34.80783294932917,16,33.70709007704863,2.0,0.9907120273975911,0.009287972602408929,-4.6697036096001625,0,34.94047342502745,1.1667101233033463,0,77,37.12675446498906,72,35.95794538361952,1.0694444444444444,0.789895151579692,0.21010484842030794,-1.3242935328221495,0,32.238427089178,1.149497719714418,1,6,34.39170198509237,26,33.240040517470334,0.23076923076923078,0.025731181337750764,0.9742688186622492,3.633983721988453
8,0,39.243254732049536,1.2325339673552662,1,24,41.49604544148315,90,40.261448861740064,0.26666666666666666,6.203482172395525e-12,0.9999999999937965,25.805910340823456,0,37.30896637873957,1.149695645144675,0,95,39.47771067015128,16,38.32675794151146,5.9375,0.999999990947025,9.052975068072675e-09,-18.520172387400095,0,39.62762399378698,1.432493592146784,1,45,42.07950440410059,92,40.64528044575127,0.4891304347826087,0.017932552365744536,0.9820674476342555,4.003042360768289,1,36.89129823300755,0.8323425208800472,1,10,38.72715679492103,44,37.893087463337,0.22727272727272727,0.0012526252811801974,0.9987473747188198,6.681260294641045
9,1,43.99632553954143,1.0959460441954434,1,69,46.09875137085328,61,45.00105639256071,1.1311475409836065,0.0926523286908083,0.9073476713091917,2.281671610050066,1,41.97891205002088,1.0321006646263413,1,24,44.03061365586473,69,42.99720138934208,0.34782608695652173,4.442087545253326e-05,0.9999555791245475,10.02175660930843,1,44.58071250002831,1.2662725539994426,0,58,46.866609698859975,6,45.59810544643551,9.666666666666666,0.9964588499605147,0.003541150039485309,-5.639756299931739,1,41.2276921022567,0.8158325353288092,1,15,43.06391807075124,19,42.24603398470208,0.7894736842105263,0.4864280237176576,0.5135719762823424,0.054301244030515415
10,1,48.60224726377055,1.015878678415902,1,15,50.63537271611858,56,49.617683869204484,0.26785714285714285,1.950180205101404e-07,0.9999998049819795,15.450173674761917,1,46.53170757915359,0.7825759227853268,0,72,48.33376394963125,51,47.54985153616872,1.411764705882353,0.9927768103111446,0.0072231896888553596,-4.923209235245686,1,49.36671952577308,1.0820564968744293,1,88,51.4527353218873,96,50.36849374382291,0.9166666666666666,0.5474931216590694,0.4525068783409306,-0.19054693465406816,1,45.56442493374925,1.2328784603741951,0,42,47.81668349629035,39,46.581980645190924,1.0769230769230769,0.8424780942525816,0.15752190574741845,-1.6767831282963614
11,1,53.13636431872146,1.4658600315451622,1,45,55.62162064999575,40,54.15402195591014,1.125,0.2633371075048414,0.7366628924951586,1.028695393533708,0,50.83408552908804,1.6493618187960237,1,38,53.48698314197827,43,51.83634883235209,0.8837209302325582,0.3544476332014641,0.6455523667985359,0.5995457180474125,1,53.95326154289069,1.4493188362102956,1,4,56.40595577843487,22,54.954932254971936,0.18181818181818182,0.1617129688745249,0.8382870311254751,1.6455375944059627,1,50.31719470495591,1.098547519533895,0,45,52.43731807451695,40,51.33575426589232,1.125,0.8945096206529849,0.1054903793470151,-2.1376559004980367
12,1,58.122576697089244,1.299482154310681,0,16,60.442327840370126,10,59.140750678721815,1.6,0.903388090208002,0.09661190979199792,-2.235450216443808,1,55.988069164101034,0.9659113894449547,1,55,57.973455075290985,95,57.0062012692797,0.5789473684210527,7.114100532101819e-05,0.999928858994679,9.550775516421991,1,58.90676841849927,1.2325438437983394,0,98,61.15923675830709,73,59.925033264094964,1.3424657534246576,0.9696427355697514,0.030357264430248557,-3.46389184574534,0,54.937432642153,1.0325281204422936,0,78,56.989664419554174,65,55.95533403183799,1.2,0.9841929600598995,0.01580703994010049,-4.131366568822389
13,0,62.942217618459836,1.1154853558982722,1,6,65.0611968919402,26,63.944030552404,0.23076923076923078,0.0013476407595743867,0.9986523592404256,6.608051251197162,0,60.47425033268519,1.2492331870016642,1,12,62.72645398176974,23,61.47590840281919,0.5217391304347826,0.19226503714225152,0.8077349628577485,1.4353591665151468,0,63.659899670339655,1.4493144904845394,1,12,66.12917302711867,23,64.67803217057372,0.5217391304347826,0.29113015241698403,0.708869847583016,0.8899015115197302,1,59.4899844188476,1.1327092162682675,1,50,61.64262208167929,62,60.50827020261204,0.8064516129032258,0.17341909708088188,0.8265809029191181,1.5615866072500977
14,1,67.5621869143215,0.748652842710726,1,3,69.31553742487449,18,68.56391688552685,0.16666666666666666,0.011920644996751273,0.9880793550032487,4.4174912427126865,0,65.22739027580246,1.0991689501097426,1,7,67.34626604343066,54,66.24584554071771,0.12962962962962962,4.11191734157601e-05,0.9999588808265842,10.098994918757382,1,68.62994695123052,1.5156554690911435,1,53,71.1654799040407,55,69.64804113056744,0.9636363636363636,0.5991313476018947,0.40086865239810526,-0.4018470286899982,0,64.14419205329614,1.2495136801153421,0,62,66.41252603451721,16,65.16126855602488,3.875,0.9999872150015876,1.2784998412356257e-05,-11.267225288321182
15,0,71.81511787034106,0.8318324973806739,1,35,73.6673825167818,62,72.8334546170081,0.5645161290322581,5.3274141560422095e-06,0.999994672585844,12.142639259041193,1,69.84715255984338,1.4158429649542086,0,16,72.28266955219442,10,70.8655086645158,1.6,0.9318969440448067,0.06810305595519328,-2.6162001468382643,1,73.66631308721844,1.1161012556403875,1,45,75.80252135696355,40,74.68456805631286,1.125,0.7292207708072334,0.2707792291927666,-0.9906726903303132,1,68.91263309598435,1.3828040308435448,1,53,71.31530473410385,55,69.93076994188596,0.9636363636363636,0.6585721038039565,0.3414278961960435,-0.6569374940339089
16,0,76.16799683636054,1.7667162072611973,1,87,78.95428554044338,76,77.18582039902685,1.144736842105263,0.05032592606073916,0.9496740739392608,2.9375984727043187,0,74.78408940066583,1.265673641813919,0,87,77.06926679878961,76,75.80215711094206,1.144736842105263,0.8928915835862259,0.10710841641377405,-2.120623607552595,1,78.30580431217095,1.2325454240781255,1,50,80.55543651053449,62,79.32079449883895,0.8064516129032258,0.35668998235933025,0.6433100176406698,0.5897597428125716,1,73.81907005852554,0.7820907881250605,1,55,75.61849058332155,95,74.83465362648712,0.5789473684210527,0.0004628707639366958,0.9995371292360633,7.677599692486245
17,1,81.45479082321981,1.2990815626690164,1,66,83.77449455921305,59,82.47323858196614,1.11864406779661,0.08615176996735796,0.913848230032642,2.3615539994296983,0,79.57051361066988,1.11531192419352,0,40,81.70466914452845,15,80.5885560369934,2.6666666666666665,0.9987363745794797,0.0012636254205202818,-6.672505947232956,1,83.05561902862974,1.2322716469643638,1,46,85.29180138238007,40,84.05778001114959,1.15,0.7497222162178576,0.2502777837821424,-1.0971313234100795,1,78.11908159428276,1.0157364564947784,0,33,80.15480654663406,25,79.13729468692327,1.32,0.9376688407492065,0.06233115925079349,-2.7109353891795402
18,1,86.27472606481751,1.5160382829490118,1,87,88.79426695680013,89,87.27637386339484,0.9775280898876404,0.0003869259079742893,0.9996130740920257,7.856890334743516,0,84.20669659646228,1.2992435375927016,0,68,86.525632334291,63,85.22512341698166,1.0793650793650793,0.7531832823122115,0.2468167176877885,-1.1156625734552374,0,87.7922718997579,1.1829088010126725,1,22,89.97862839634763,31,88.79411801887909,0.7096774193548387,0.3558140795673105,0.6441859204326895,0.593579034737239,1,82.65516249643406,1.3823050691280514,0,72,85.0415370867704,51,83.65716071391944,1.411764705882353,0.9971171762750154,0.0028828237249846032,-5.846098018042537
19,1,91.29440325277392,1.0486201316234656,1,14,93.34674762253417,57,92.29636947030667,0.24561403508771928,1.0106725167879915e-07,0.9999998989327483,16.10747958241718,1,89.02676497359062,1.2154653657926247,0,82,91.24550420820015,40,90.02878057374619,2.05,0.9999448740856485,5.5125914351508365e-05,-9.805835510025549,0,92.47858098900178,1.0828023715876043,0,87,94.58128612831933,76,93.49665225483477,1.144736842105263,0.8812946802661551,0.11870531973384486,-2.004747936612225,0,87.542146665568,1.0160785791813396,1,15,89.57718776765978,42,88.55988450004952,0.35714285714285715,0.006014503487940526,0.9939854965120595,5.107548815142214
20,0,102.87037028255872,1.532374046742916,0,95,105.42175386444433,16,103.88768303167308,5.9375,0.9999999997204992,2.795007244037654e-10,-21.99801623127276,1,100.75233955000294,1.3657358244527131,0,45,103.13668194762431,40,101.76961634855252,1.125,0.8417668119798585,0.1582331880201415,-1.671433211952573,0,104.10439915989991,1.2821105411276221,1,53,106.40592930937419,57,105.12211684632348,0.9298245614035088,0.552253774282489,0.447746225717511,-0.2097810651862069,0,99.10122642671922,1.0153923585894518,1,54,101.13613360322779,80,100.11840248480439,0.675,0.009864853271853713,0.9901351467281463,4.6088631799027295
21,0,107.92242349253502,0.9986097810324281,0,43,109.92487761017401,7,108.92459316638997,6.142857142857143,0.999981559450743,1.8440549257071713e-05,-10.900940113384884,0,105.63801448768936,1.0993024806957692,0,78,107.75619099766482,65,106.65565987798618,1.2,0.9440713184900449,0.055928681509955114,-2.8261243779166048,0,108.9095235724817,1.215855290822219,0,80,111.14244627964217,60,109.9248104498256,1.3333333333333333,0.9424628248995746,0.05753717510042541,-2.7960652130842005,1,103.63640540506458,1.3993104608962312,0,12,106.05538396752672,9,104.65432536258595,1.3333333333333333,0.8118664432442213,0.18813355675577872,-1.4621837289854334
22,1,112.42587908927817,0.8985756477923132,1,50,114.34456333139678,62,113.44385435531149,0.8064516129032258,0.00034932562924183674,0.9996506743707582,7.959156649033963,1,110.25757687096484,1.182418925629463,1,53,112.44312744349008,55,111.25934279267676,0.9636363636363636,0.44276031800170124,0.5572396819982988,0.2299668754220097,0,113.64287926623365,1.048982007370796,0,78,115.71212710207328,65,114.66143922222545,1.2,0.891192776409797,0.10880722359020305,-2.1029830381651875,0,108.5561977927573,1.1321004276396707,0,68,110.7090981710353,63,109.57464120577788,1.0793650793650793,0.9090575989422581,0.09094240105774191,-2.3021821066364145
23,0,116.8455098970444,1.415828347671777,1,87,119.28127182711614,85,117.86352387903025,1.0235294117647058,0.001755469245608543,0.9982445307543915,6.343262069500504,0,114.94411272509024,1.0827332359622233,0,86,117.04599376756232,59,115.96205520106014,1.4576271186440677,0.997645312924704,0.002354687075296011,-6.048989973364204,1,118.21235900279135,1.1988937507849187,1,28,120.41525629960233,82,119.21450892364373,0.34146341463414637,0.007748254138637556,0.9922517458613624,4.8525093056053485,0,113.20886350492947,0.9484978998079896,0,41,115.16086835943861,22,114.21078033989761,1.8636363636363635,0.9944308740839941,0.005569125916005908,-5.184932473150661
24,0,121.78168703598203,1.0992258388432674,0,86,123.88479553232901,59,122.78341266151983,1.4576271186440677,0.9614476408997392,0.03855235910026077,-3.216422813910316,1,119.5471801350941,1.4654337609536014,1,37,122.03243686142378,54,120.56567688134965,0.6851851851851852,0.029211856309287132,0.9707881436907129,3.5035335959987153,0,122.91597768064821,1.0331855015829206,0,41,124.96878545667278,22,123.93378386064433,1.8636363636363635,0.9083316031045837,0.09166839689541631,-2.29343182954538,0,117.66216573910788,1.147610514308326,1,22,119.83132207888411,31,118.68159601400839,0.7096774193548387,0.24922308620552514,0.7507769137944749,1.1027601315344238
25,0,126.38503967988072,0.9659718337352388,0,40,128.3709466762375,15,127.40294264978729,2.6666666666666665,0.9991220013002605,0.0008779986997395035,-7.036987060898403,1,124.53392228996381,1.1321375633706339,0,98,126.68563393037766,73,125.55224916012958,1.3424657534246576,0.994887786031341,0.005112213968659019,-5.270997380587499,0,127.46901893761242,1.0484226012486033,1,45,129.53856030362658,60,128.48786254727747,0.75,0.2829273631503265,0.7170726368496735,0.9299869447076096,1,122.33194390451536,1.1324267478194088,0,97,124.48443618504098,61,123.35020796000026,1.5901639344262295,0.9999104413334735,8.955866652650863e-05,-9.320527092831014
26,1,130.87108889815863,1.632885413360782,1,56,133.5076211177511,46,131.87290499260416,1.2173913043478262,0.4424436299424981,0.5575563700575019,0.23125054406080683,1,129.18672903889092,1.6500097184907645,0,46,131.85596123035066,40,130.2047651442699,1.15,0.8689016254854691,0.13109837451453088,-1.8912819227113022,1,132.03848958777962,1.3657697996823117,0,46,134.40794609475415,36,133.04026578110643,1.2777777777777777,0.8147633113999705,0.18523668860002954,-1.4812632504176637,0,126.98519865237176,0.9488487138296477,1,45,128.95385926985182,60,128.00328809098573,0.75,0.09479262740371386,0.9052073725962861,2.2564724222077963
27,0,136.00804896856425,1.2321452274918556,1,22,138.26012422289932,31,137.02629761665594,0.7096774193548387,0.017332199024519435,0.9826678009754806,4.037705132078567,0,134.3566438953858,1.6332417582161725,1,71,136.99296870804392,64,135.35847381694475,1.109375,0.8221812438191233,0.17781875618087675,-1.531196054168463,0,136.9084395256359,1.1823960121255368,1,59,139.09443335636752,65,137.9102674719179,0.9076923076923077,0.5200564847173409,0.4799435152826591,-0.08026900964963425,0,131.45465887291357,0.915737088653259,1,24,133.3904298893758,90,132.47270524990745,0.26666666666666666,1.2260407894482128e-06,0.9999987739592106,13.611719224612882
28,1,140.76083967799786,1.4319025811273605,1,46,143.19719973008614,40,141.763602338091,1.15,0.3208656325523357,0.6791343674476643,0.7497965528667071,0,139.49596366391052,0.9992280512233265,0,45,141.51252540241694,42,140.51188263850054,1.0714285714285714,0.7655600014833862,0.23443999851661382,-1.183407908826652,1,141.59521913231583,1.0490424516610801,1,15,143.6643697831896,56,142.61331963259727,0.26785714285714285,0.023211688047961365,0.9767883119520386,3.7396140100930073,0,135.8910054929438,0.9656127234920859,0,9,137.87672048975946,7,136.90935330127832,1.2857142857142858,0.7722425386050402,0.2277574613949598,-1.2210173729190492
29,0,145.69811153039336,0.9978978815488517,1,56,147.7171088187024,59,146.71733874408528,0.9491525423728814,0.005762856930486282,0.9942371430695137,5.1505424060997225,1,144.01391957193846,1.1156086148694158,1,88,146.1486447834759,96,145.03170481376583,0.9166666666666666,0.07311603313210702,0.926883966867893,2.539780712947897,1,146.16492800408741,1.8495284554664977,1,66,149.03446154791163,59,147.18295186263276,1.11864406779661,0.8024499208663314,0.19755007913366862,-1.401677331719372,0,140.37709342717426,0.882657858368475,0,87,142.27972595422762,76,141.39535669249017,1.144736842105263,0.9771643859418521,0.022835614058147918,-3.7563335563450826
30,0,150.21792224887758,0.9990743725793436,1,60,152.23608753911685,70,151.23535825690487,0.8571428571428571,0.0002752859735730695,0.9997247140264269,8.197424772849423,0,148.65001129877055,1.1492211771546863,1,60,150.81789080204908,70,149.66785421944223,0.8571428571428571,0.08696919272845594,0.9130308072715441,2.3512156735553242,0,151.53508495388087,1.0493024016614072,0,62,153.60442839440657,17,152.55306140508037,3.6470588235294117,0.9933682191221477,0.0066317808778523476,-5.009228032979947,1,144.78039874276146,1.2496483958675526,1,58,147.04962082067505,58,145.79802042938536,1.0,0.7562293525638007,0.24377064743619922,-1.1321168928563141
31,0,154.73677217948716,1.032481108151842,0,28,156.7730095256702,18,155.73847252113046,1.5555555555555556,0.9279073487871419,0.07209265121285814,-2.5549797739623403,1,153.31928220618283,1.6499682370922528,0,33,155.97208105382742,25,154.32090748625342,1.32,0.9366383501922854,0.06336164980771468,-2.6934384562922418,1,156.1046381717315,1.1163216995773837,0,72,158.22421280184062,51,157.10657831525896,1.411764705882353,0.9431437728844733,0.056856227115526764,-2.8086929842131374,0,149.55005894310307,1.2160231916350313,1,38,151.78594223578693,43,150.56814640638186,0.8837209302325582,0.47265694262595137,0.5273430573740486,0.10948145402743072
32,1,159.273483598663,0.782549848780036,1,24,161.07595320267137,69,160.2916962961899,0.34782608695652173,1.7529581897157698e-08,0.9999999824704181,17.859375971472186,1,158.47273132391274,1.0832476051873527,0,66,160.55884786054958,59,159.47474534384673,1.11864406779661,0.8391632998277779,0.16083670017222207,-1.6520157581896235,1,160.7244261346641,1.0324139478616416,1,15,162.77694986201823,42,161.7424278697581,0.35714285714285715,0.08354310823232336,0.9164568917676766,2.3951522655664577,0,154.2862578893546,1.4157066689804196,1,35,156.705721586477,62,155.28815062565263,0.5645161290322581,0.006933158115526861,0.9930668418844731,4.96448254893494
33,1,163.57615152315702,0.9325145303155296,0,41,165.52882047486492,7,164.59425044321688,5.857142857142857,0.9999677881011596,3.221189884038411e-05,-10.343142432050882,0,163.05984696926316,1.1994266877882183,1,45,165.2784570189542,92,164.07764129748102,0.4891304347826087,1.6416213463599227e-05,0.9999835837865364,11.017224669325355,0,165.277696131845,1.1987503436976112,0,71,167.49689087155275,64,166.2959262121003,1.109375,0.8105834268904364,0.18941657310956359,-1.4538055883587213,0,159.2063663256704,1.216163438220974,0,87,161.44197228568373,85,160.22454741835827,1.0235294117647058,0.8555703532566187,0.1444296467433813,-1.7789758111274585
34,0,168.02935657236958,1.2327947074663825,1,71,170.2819272329216,69,169.04734961612849,1.0289855072463767,0.008567877426542414,0.9914321225734576,4.751130459201534,0,167.77949365851237,0.8649180486099795,0,78,169.64758167485707,34,168.78133898746455,2.2941176470588234,0.9999692784838898,3.072151611021846e-05,-10.3905165763684,0,169.99700741446577,1.0492245746427216,0,43,172.0672452726867,7,171.01574593794066,6.142857142857143,0.981050452252602,0.018949547747397967,-3.9468438219833537,1,163.94319894944783,1.2494737789966166,0,32,166.21171031298582,16,164.96092137659434,2.0,0.9885859823718119,0.01141401762818808,-4.461433404951508
35,0,172.78278570005205,1.4996061243582517,0,71,175.30162496404955,64,173.8001652144012,1.109375,0.05421307821360721,0.9457869217863928,2.8590951276481182,0,172.1489758444368,1.04879395844182,1,28,174.21738970692968,41,173.1672233073623,0.6829268292682927,0.0902975267729309,0.9097024732270691,2.310007522508782,1,174.5672030011774,1.2656218889169395,0,94,176.8529208424152,46,175.58549076027703,2.0434782608695654,0.9964276319541284,0.003572368045871605,-5.63094782072747,0,168.71285954484483,0.9493547867168672,0,71,170.68141389096854,64,169.73078621842433,1.109375,0.9406464199128142,0.0593535800871858,-2.7630548788380898
36,1,177.8025012088474,1.1660104706534185,1,4,179.98851518769516,22,178.82070086942986,0.18181818181818182,0.0034974391951020367,0.996502560804898,5.652220667288391,0,176.71859977813438,0.9327393199200742,0,51,178.67057421297068,7,177.73656793311238,7.285714285714286,0.9999840005942592,1.599940574076554e-05,-11.042942978082666,0,179.35373822320253,0.9321238151751459,0,40,181.30609942256706,15,180.37201017991174,2.6666666666666665,0.9457925073623203,0.054207492637679676,-2.8592040687288867,0,173.1825259870966,1.3660186879569665,1,59,175.55156886542682,65,174.18432509398554,0.9076923076923077,0.45537696880806644,0.5446230311919336,0.17896829064507278
37,0,182.4891299022711,1.016031171893701,0,41,184.5247181635932,22,183.50680610729614,1.8636363636363635,0.9906874527135116,0.009312547286488473,-4.667036437390612,0,181.17205134528922,1.131822699913755,1,55,183.32350935664726,60,182.19047421519645,0.9166666666666666,0.26691474359024636,0.7330852564097536,1.0103327117193568,0,183.80625942215556,1.315600634610746,0,14,186.1255835047923,7,184.80814741773065,2.0,0.70256526178827,0.29743473821173005,-0.8595434626701396,0,178.05249883851502,0.9993094337405637,1,7,180.07100585638545,54,179.0704266972607,0.12962962962962962,7.056514643188905e-05,0.9999294348535681,9.55890364432936
38,1,187.02540675457567,1.415772644104436,0,14,189.4610604379559,8,188.04364789649844,1.75,0.9194180819474338,0.08058191805256626,-2.4344666677311757,0,185.8249947851873,0.9991119033657014,0,28,187.8435136548942,18,186.84311898914166,1.5555555555555556,0.9645070639275571,0.03549293607244289,-3.3022834634393243,0,188.62665609479882,0.8489307285053656,0,95,190.49547892430564,16,189.64479017531266,5.9375,0.9998192827025008,0.0001807172974992737,-8.61839590636412,0,182.5720756810042,0.9656830443418585,0,86,184.5576535917353,59,183.59057282237336,1.4576271186440677,0.9993005264794959,0.0006994735205041837,-7.264482901199384
39,0,191.96216976869619,1.2159801300731488,1,59,194.19848328258377,65,192.98012449155794,0.9076923076923077,0.0013800035069453376,0.9986199964930547,6.584288281962792,0,190.34430259128567,1.6159345399937592,1,71,192.96344858047087,69,191.3462447101483,1.0289855072463767,0.5771617397626687,0.42283826023733134,-0.3111327963536576,1,192.99651674897177,0.9324928019777872,1,14,194.94848604802974,57,194.0141190776485,0.24561403508771928,0.019037834088532213,0.9809621659114678,3.9421056249246615,1,187.05855472543044,1.1654348670854233,0,69,189.24374421237735,61,188.07697957061464,1.1311475409836065,0.951128495281877,0.04887150471812292,-2.968454668352652
40,0,203.72072243975708,1.230927255062852,1,58,205.97235680627637,58,204.7395850123139,1.0,0.014566781572705412,0.9854332184272946,4.214337658455023,0,202.47049725515535,1.065461573190987,0,62,204.55454169790028,17,203.48817622556817,3.6470588235294117,0.9999836481355387,1.635186446121704e-05,-11.021152280799075,0,204.47162080800626,1.216055191529449,0,12,206.70633709116373,3,205.48851558275055,4.0,0.737062847489343,0.2629371525106569,-1.030758123518192,0,198.75047170260223,1.2988409706158563,1,37,201.06868131872034,52,199.7684256353532,0.7115384615384616,0.08999475857766026,0.9100052414223397,2.313698928690709
41,0,208.47327058186056,1.1657062738668174,1,78,210.65888436412206,65,209.49133552669082,1.2,0.2166646189680499,0.7833353810319501,1.2852103092897986,0,207.0556644606404,1.0988845063257031,1,35,209.15752100932878,62,208.05732924683252,0.5645161290322581,0.00274470765311563,0.9972552923468844,5.8953322300198305,0,209.20690321322763,0.9824999921256676,0,60,211.20935417042347,40,210.22503373818472,1.5,0.9300561502056599,0.06994384979434011,-2.587552186526804,1,203.56952714384533,1.416580543445889,1,54,206.00574260368012,78,204.58790102624334,0.6923076923076923,0.015225360252616005,0.984774639747384,4.169450347632137
42,0,213.15935962222284,1.0325514290016145,1,55,215.2120575713925,60,214.1777366651222,0.9166666666666666,0.0029948902365872776,0.9970051097634127,5.807848313077425,1,211.65922648680862,1.4160140262101777,0,58,214.09425241855206,6,212.67688846960664,9.666666666666666,0.9999973098115073,2.6901884927562237e-06,-12.82589660495673,0,213.7096058241441,1.1158622439252213,1,58,215.82912633096566,58,214.71151436283253,1.0,0.6561178134712954,0.3438821865287046,-0.6460412488331407,0,208.50739909359254,0.9160566928330809,0,40,210.4416791506228,15,209.52418917726027,2.6666666666666665,0.9984928366287266,0.001507163371273457,-6.496017656652046
43,1,217.71267347119283,1.4490395282045938,0,94,220.16593856964028,46,218.71472778730094,2.0434782608695654,0.9999685445046532,3.145549534676503e-05,-10.366905401285223,1,216.59548777365126,1.0485051689320244,1,28,218.66362430353183,82,217.61374313780107,0.34146341463414637,4.486082539445491e-06,0.9999955139174606,12.314526236601528,1,218.32968573702965,1.1674445414100774,1,6,220.51676875038538,8,219.34754169470398,0.75,0.47797461721116485,0.5220253827888351,0.08815858371988437,1,212.94261228421237,1.1833931455621496,0,58,215.14502681675367,6,213.96032206935342,9.666666666666666,0.9999964793117172,3.520688282787342e-06,-12.556850531891474
44,1,222.66612582840025,1.2489700765581802,0,12,224.93475650029723,9,223.68406395876082,1.3333333333333333,0.8173151046411553,0.1826848953588447,-1.4982619200864895,0,221.16490034986055,1.0324068367481232,1,37,223.2004419940058,52,222.16665046918206,0.7115384615384616,0.04673015723924612,0.9532698427607539,3.01550829287279,0,223.01672173815314,1.3159719918039627,1,60,225.3516605985351,61,224.0340502896579,0.9836065573770492,0.6389614927128875,0.36103850728711256,-0.5708595697369849,0,217.64590898749884,0.9992256808909588,0,53,219.66381511790678,15,218.66346232860815,3.533333333333333,0.9999209376048308,7.906239516921095e-05,-9.445194139445572
45,1,227.43566000432475,1.6162573046749458,1,33,230.07182007667143,25,228.45376524538733,1.32,0.7859400688163897,0.2140599311836103,-1.300624513122553,1,225.7014829792315,1.1660902729490772,1,43,227.88687157683307,93,226.7194436279824,0.46236559139784944,8.286001540014354e-06,0.99999171399846,11.70093474241582,0,227.85265931219328,0.9986153119243681,1,28,229.85474839364178,41,228.85437703650678,0.6829268292682927,0.2859457047852183,0.7140542952147817,0.9151570537776049,0,222.16545936092734,1.2327228063950315,1,12,224.41719288763124,23,223.18382731737802,0.5217391304347826,0.16607470636467847,0.8339252936353215,1.6137060969086487
46,1,232.5727267412003,0.9312574468785897,1,10,234.50766812998336,44,233.57482846459607,0.22727272727272727,4.534536808376011e-06,0.9999954654631916,12.303783082138976,0,230.38777152530383,1.149484287656378,0,14,232.55647354514804,7,231.40572427288862,2.0,0.948267021957822,0.051732978042178045,-2.90854068000969,0,232.3560923904879,0.7988804767373949,0,62,234.1745319319307,16,233.3738057311857,3.875,0.9939718038192901,0.006028196180709879,-5.105261014731843,1,226.91810429288307,1.1820108278188854,1,19,229.10428656765725,37,227.92084601480747,0.5135135135135135,0.04304221844778089,0.9569577815522191,3.101577816683142
47,1,237.0088730653515,1.265914233867079,0,98,239.29443406750215,73,238.02674482547445,1.3424657534246576,0.7799731606247695,0.22002683937523052,-1.2655099735647428,0,235.05737151834182,1.0494793889229186,0,12,237.1262187625398,3,236.07544712984236,4.0,0.9690784993891549,0.03092150061084505,-3.444893864744076,0,236.67529597954126,1.098747420241125,0,87,238.77828279713867,85,237.6772625921294,1.0235294117647058,0.7577624520342906,0.2422375479657094,-1.1404511008451592,0,231.6053409848828,0.8986447834759019,0,28,233.52316162415082,18,232.6231309674331,1.5555555555555556,0.9574902328253903,0.042509767174609706,-3.114581654898302
48,1,241.79492591816233,1.2325007822364569,0,58,244.04830842866795,6,242.8135909603443,9.666666666666666,0.9999998074345965,1.9256540354156355e-07,-15.46282978970058,1,239.62760187039385,1.7995173147064634,0,41,242.4461887695361,7,240.64533417404164,5.857142857142857,0.9998558419136925,0.00014415808630755667,-8.844455870495374,1,241.27860042604152,1.865992218896281,0,42,244.16443299292587,39,242.29656621057075,1.0769230769230769,0.6829429871244967,0.3170570128755033,-0.767329772842911,0,236.02460438612616,0.9322213951963931,0,50,237.97645279654535,7,237.04295495990664,7.142857142857143,0.9999730706344304,2.692936556957248e-05,-10.522266280190937
49,0,246.54836689768126,1.098844210151583,1,54,248.66737066500355,80,247.56683361931937,0.675,1.1742397346692357e-06,0.9999988257602653,13.654888479868829,0,244.94770106225042,1.5161093939095736,1,24,247.48313524987316,90,245.96575297007803,0.26666666666666666,2.643418840486689e-07,0.999999735658116,15.14602229193143,0,246.66527170699555,0.8324377305107191,0,45,248.51838849962223,42,247.6836238609976,1.0714285714285714,0.689676367627555,0.3103236323724449,-0.7986067268265209,1,240.4778611882939,0.7488227188587189,1,40,242.24582697288133,93,241.4957530964748,0.43010752688172044,2.391255998346331e-05,0.9999760874400165,10.64108280189877
50,1,251.168161576672,0.9157931872177869,1,75,253.10467372718267,70,252.18655363185098,1.0714285714285714,0.017741601444344002,0.982258398555656,4.013942162844223,0,249.9839431492146,0.9491635773447342,1,15,251.9361716081039,42,250.98574265110074,0.35714285714285715,0.004442642356781934,0.9955573576432181,5.412053413935239,0,251.01822849997552,0.964869219053071,0,71,252.98776220181026,69,252.02056291420013,1.0289855072463767,0.7258445673998124,0.2741554326001876,-0.9736406795992412,1,244.7472005992313,0.847876311163418,1,43,246.59883670398267,97,245.74966024776222,0.44329896907216493,1.9612393096779535e-05,0.9999803876069032,10.839329278104243
51,1,255.60765090532368,0.8155307088163681,1,55,257.44020280841505,95,256.6228326964774,0.5789473684210527,5.318387730213203e-09,0.9999999946816123,19.052095632436497,0,254.43736034602625,0.8990532762836665,0,62,256.355406960065,17,255.45503418066073,3.6470588235294117,0.9999836481355387,1.635186446121704e-05,-11.021152280799075,0,255.4879530161852,0.8128233572351746,1,35,257.32326560409274,62,256.50878654705593,0.5645161290322581,0.10095672240826503,0.899043277591735,2.18663923900906,1,249.09998830623226,0.8823512911912985,1,3,251.00158063822892,18,250.11782846145798,0.16666666666666666,0.07196352916052329,0.9280364708394767,2.5569115812430927
52,0,259.94044853618834,1.3989011779194698,1,96,262.34335681574885,89,260.9423890748294,1.0786516853932584,0.004740783670702742,0.9952592163292973,5.346800768740201,1,258.85668853722746,1.165927903028205,1,58,261.0256505071302,58,259.8584971255623,1.0,0.5342559317718589,0.46574406822814113,-0.13723872368275308,1,259.82378155348124,0.6650544235599227,1,26,261.4928173997323,84,260.8258769559325,0.30952380952380953,0.0051813617723566185,0.9948186382276434,5.257492535268682,1,253.50252246315358,1.0998283065855503,0,53,255.62212948832894,40,254.52075333351968,1.325,0.9811559413636755,0.018844058636324556,-3.952533736063283
53,1,264.84328768012347,1.0327355273184367,1,15,266.880141321104,19,265.8452321693185,0.7894736842105263,0.19013823366574378,0.8098617663342562,1.4491122210193532,1,263.52676062792307,0.8483717174385674,1,54,265.39469852123875,78,264.5450740660308,0.6923076923076923,0.0036028915477707146,0.9963971084522293,5.622409150611403,0,263.99334480590187,0.8824753403314389,0,9,265.8796949024545,7,264.9951889496879,1.2857142857142858,0.581090181787941,0.418909818212059,-0.3272502972713097,1,258.12276158557506,0.6150314310798422,1,26,259.74102145340294,84,259.1247289883322,0.30952380952380953,7.211969505593885e-06,0.9999927880304944,11.839761268923668
54,1,269.38019820989575,0.8491618389962241,1,15,271.24919210065855,42,270.3983247841825,0.35714285714285715,3.897797850993534e-05,0.9999610220214901,10.152474746164733,1,267.89631392480806,0.9994528407696635,1,3,269.9149114115862,18,268.91408099379623,0.16666666666666666,0.10029651444039733,0.8997034855596027,2.1939343055289027,1,268.37984305020655,0.8995083863264881,0,14,270.2988607236766,8,269.39808221685234,1.75,0.6821154114953492,0.3178845885046508,-0.7635104809182435,0,262.2421746358741,0.7817925172275864,0,60,264.0435416252003,40,263.2604710863088,1.5,0.996090979792013,0.003909020207986953,-5.5405518421828726
55,1,273.74997827166226,1.2161934628384188,0,53,275.96962614607764,40,274.7516556997434,1.325,0.7689683916806291,0.2310316083193708,-1.202495331802298,0,272.4159433103632,1.0492067969753407,0,60,274.484415246814,40,273.4338905271143,1.5,0.9930989989378027,0.00690100106219725,-4.96916387333351,1,272.79943316674326,0.999215409217868,1,3,274.81880536774406,18,273.8177015678957,0.16666666666666666,0.20296511997596067,0.7970348800240393,1.3678643004781441,0,266.544987547677,1.1654411880881526,0,12,268.7135647283285,3,267.54673648183234,4.0,0.9416086635160499,0.058391336483950076,-2.7804222257971825
56,1,278.4700852066744,0.7156692171702161,1,26,280.20565679646097,84,279.4879459051299,0.30952380952380953,1.0493450552928607e-10,0.9999999998950655,22.97768471714728,1,276.98539578769123,1.3162335220258683,0,56,279.3210856586811,46,278.00358399149263,1.2173913043478262,0.932496951399206,0.06750304860079401,-2.625693120920827,1,277.31896773772314,0.74890805198811,0,54,279.08817164285574,31,278.33737401507096,1.7419354838709677,0.9433794836316695,0.05662051636833057,-2.813097223815273,1,271.2146799849579,0.9990091875661165,1,43,273.23349080455955,93,272.2330617685802,0.46236559139784944,4.7226714449011276e-05,0.999952773285551,9.960503613562462
57,0,282.7056267718435,1.0155389261199161,0,62,284.72533398435917,17,283.70776484085945,3.6470588235294117,0.9999959465876513,4.05341234865968e-06,-12.415947422951053,1,281.82233484089375,1.3329149639466777,0,97,284.1743960310705,61,282.84022714418825,1.5901639344262295,0.9996576383449961,0.0003423616550038833,-7.979300488584304,1,281.58862596272957,1.0994127026060596,0,12,283.7079299762263,9,282.60669880878413,1.3333333333333333,0.6117229215633768,0.3882770784366231,-0.4545602330068154,1,275.7344602837693,0.9153696821304038,0,94,277.65286047715927,46,276.7361511439667,2.0434782608695654,0.9999934467582021,6.553241797842723e-06,-11.935544146523423
58,1,287.2257401068928,0.9820116969640367,1,42,289.2278189167846,39,288.24387971818214,1.0769230769230769,0.18437471641088365,0.8156252835891163,1.4869848492240263,1,286.67554960859707,1.1487640918348916,1,50,288.82732445868896,62,287.6773254068685,0.8064516129032258,0.06929293891060329,0.9307070610893967,2.597601568638922,1,286.2101968350471,0.8653699980932288,0,16,288.094273356779,10,287.22667047503637,1.6,0.6866194159361677,0.3133805840638323,-0.7843617835739832,1,280.1539476845064,1.4994721987750381,0,6,282.67318951542256,8,281.17226862872485,0.75,0.5795025793674743,0.4204974206325257,-0.32073176844679036
59,1,291.72834592784056,0.6651026210165583,1,43,293.41425007977523,97,292.7471824263921,0.44329896907216493,8.782308213994838e-11,0.9999999999121769,23.155696755217924,0,291.32867280120263,1.2488732865895145,0,96,293.5972683126456,89,292.34712293028133,1.0786516853932584,0.7164860672530661,0.2835139327469339,-0.9270975340626644,0,290.5945957263466,0.9642383070313372,1,6,292.5805197103764,26,291.61438708688365,0.23076923076923078,0.13982403311519154,0.8601759668848085,1.8167522552540147,1,285.17387652612524,1.615675775159616,0,52,287.79265668900916,68,286.17585696588503,0.7647058823529411,0.08120354973721311,0.9187964502627869,2.4261056451705363
60,1,302.9371031614137,0.8826870928751305,1,43,304.8388515424449,93,303.95416188641684,0.46236559139784944,3.989968355710971e-10,0.9999999996010032,21.642067629570644,0,303.10426246892894,1.1324133157613687,1,59,305.2553898143815,65,304.1216593659483,0.9076923076923077,0.20570674806476053,0.7942932519352395,1.3510011264992472,1,302.1030642495025,1.248751607898157,0,32,304.37110588577343,16,303.1206764546805,2.0,0.8711877982238668,0.1288122017761332,-1.9115020223388623,1,297.2999905975885,0.9317528531537391,1,24,299.2506285417476,69,298.31763282738393,0.34782608695652173,0.00012365586296703146,0.999876344137033,8.997884485784775
61,0,307.3391217640601,1.1314292193274014,0,78,309.4916231309762,34,308.3583272493561,2.2941176470588234,0.9999709193579678,2.90806420322055e-05,-10.445408746341426,0,307.75616176321637,0.8984496233751997,0,50,309.65802431677,7,308.75834526418475,7.142857142857143,0.9999800666071703,1.9933392829645278e-05,-10.823094267323937,0,306.87224682135275,0.9655645260936581,1,24,308.8581644843216,90,307.8906491480884,0.26666666666666666,0.002360290033727064,0.9976397099662729,6.046607691939553,1,301.7519863657071,0.9485468873754144,0,56,303.7200259476085,46,302.77022948290687,1.2173913043478262,0.9649355808829718,0.035064419117028185,-3.3148744275885003
62,0,311.99234016629634,1.1491318934131414,1,28,314.16124643257353,41,313.01023918559076,0.6829268292682927,0.0021323781790442142,0.9978676218209558,6.148382751183438,1,312.15911428950494,0.8988039929536171,0,42,314.0775923099136,67,313.17753202363383,0.6268656716417911,0.003771685373902045,0.996228314626098,5.5764545125236,0,311.35849238478113,0.8658997746533714,0,86,313.22839807585115,59,312.36025988677284,1.4576271186440677,0.9715529137156105,0.028447086284389553,-3.5308499933146926,1,306.22108905622736,0.8158542636665516,0,82,308.0401772874757,40,307.2229802121874,2.05,0.999973317231438,2.668276856195315e-05,-10.531465889987299
63,1,316.66194727044785,1.4663751908228733,0,97,319.14836863597156,61,317.6799774499377,1.5901639344262295,0.9960398127843239,0.0039601872156761544,-5.527495928625957,1,316.57851833238965,1.5490693157771602,0,15,319.13077499868814,19,317.5804786240915,0.7894736842105263,0.5498927996264329,0.45010720037356716,-0.20023757201288567,0,315.7280065706582,0.8821802298771217,1,7,317.613983729796,54,316.7297815787606,0.12962962962962962,0.012137818621341778,0.9878621813786582,4.399217111227331,0,310.5412301244796,0.8489342840039171,0,14,312.40901907987427,7,311.5588774901116,2.0,0.9133558466249505,0.08664415337504955,-2.355316020147328
64,0,321.6487723880564,1.1821143337292597,1,15,323.8508965509245,42,322.66693767835386,0.35714285714285715,3.897797850993534e-05,0.9999610220214901,10.152474746164733,0,321.6320897609694,1.68264648062177,0,58,324.31778374058194,58,322.63381854700856,1.0,0.5342559317718589,0.46574406822814113,-0.13723872368275308,1,320.1145012594643,0.8658740957034752,1,19,322.00026706105564,37,321.1323959330912,0.5135135135135135,0.18404891787675426,0.8159510821232457,1.4891528244879144,1,314.91054440959124,0.9485476774862036,1,37,316.8785879421048,54,315.9290150818415,0.6851851851851852,0.05991114998541491,0.9400888500145851,2.7531117609612914
65,0,326.3519130423665,0.865637454262469,1,45,328.2375532146543,60,327.3699305799091,0.75,0.0001846549902110306,0.999815345009789,8.596836719747317,1,326.81869791122153,1.5494548951392062,1,19,329.3713970456156,37,327.8206234375248,0.5135135135135135,0.035141614507173125,0.9648583854928269,3.3125953130854993,1,324.50051318394253,1.1319830945576541,1,25,326.6527976624784,37,325.51892104157014,0.6756756756756757,0.2993487399355409,0.7006512600644591,0.8504010260093186,0,319.3800579633098,1.1657710638828576,1,60,321.5654781658086,70,320.39832754968666,0.8571428571428571,0.2591020989706897,0.7408979010293103,1.0506406418758758
66,1,330.7376918810187,1.399756879603956,0,82,333.1408889499726,40,331.73943054355914,2.05,0.9999077173121612,9.228268783876962e-05,-9.29056171114532,1,331.87244237645064,1.3656994788325392,1,52,334.25762743875384,68,332.89057882729685,0.7647058823529411,0.026033821566065707,0.9739661784339343,3.62198005649923,1,329.1534230437246,0.8478510272689164,0,74,331.0228649334167,60,330.1730919353431,1.2333333333333334,0.8963502129220801,0.10364978707791994,-2.1573134146056043,1,324.06654127436923,1.115636269096285,1,4,326.18531393114245,22,325.0683723811526,0.18181818181818182,0.038833009489495085,0.9611669905105049,3.208877516338605
67,1,335.6412089492078,1.0324127626954578,1,37,337.6936911951634,54,336.65959468344226,0.6851851851851852,0.00019204571575692775,0.9998079542842431,8.557585047218927,0,336.7592629903811,1.081529090704862,1,7,338.860938601254,54,337.77810857538134,0.12962962962962962,4.11191734157601e-05,0.9999588808265842,10.098994918757382,1,333.52323313010857,1.3325929894344881,0,58,335.87602715805406,58,334.54157422244316,1.0,0.6561178134712954,0.3438821865287046,-0.6460412488331407,1,328.6864410395501,0.9326235671178438,0,46,330.63836332637584,36,329.704386280966,1.2777777777777777,0.9624331029203106,0.03756689707968945,-3.243341294484858
68,1,340.1968208667822,1.5165135411079973,0,74,342.7303887872258,60,341.21222507720813,1.2333333333333334,0.3754818306555818,0.6245181693444182,0.5087703404043794,0,341.3619452161365,1.132716327381786,1,22,343.51416529976996,31,342.3801938642282,0.7096774193548387,0.2334426156477164,0.7665573843522836,1.1889732714315444,1,338.37663634179626,1.2503279004595242,0,75,340.64691481221234,70,339.3948561504367,1.0714285714285714,0.7864137347318807,0.21358626526811925,-1.3034422301664088,0,333.13950347178616,1.3826416609226726,0,58,335.54166745679686,58,334.1577651569387,1.0,0.7562293525638007,0.24377064743619922,-1.1321168928563141
69,0,345.23100547713693,1.3656899973284453,0,9,347.6173670304124,7,346.2497112105484,1.2857142857142858,0.8050842522440318,0.19491574775596823,-1.4183795307068565,0,346.01525606261566,1.115342738921754,0,41,348.1500405332772,22,347.0333810566808,1.8636363636363635,0.9944271824031641,0.005572817596835919,-5.1842660970509575,0,343.14764053892577,0.8317562506417744,0,51,344.99827990529593,7,344.16485017712694,7.285714285714286,0.991825380450629,0.00817461954937105,-4.798512886621482,0,338.0427961454843,0.9654973657452501,0,43,340.0279232918401,7,339.06108469475294,6.142857142857143,0.9998682204308995,0.00013177956910045968,-8.934248174071346
70,1,350.1177241653786,1.8996059663477354,0,46,353.037070529419,36,351.1355730119394,1.2777777777777777,0.6821850613146485,0.3178149386853515,-0.7638317123760312,0,350.65168714663014,1.5323843182995915,0,77,353.18710000097053,72,351.6534143523895,1.0694444444444444,0.7105768099690273,0.2894231900309727,-0.8981871062171469,1,347.4989234593231,1.4161728406324983,0,15,349.9186538224458,19,348.5006874057581,0.7894736842105263,0.45353602415149186,0.5464639758485081,0.18639368527284786,0,342.5291693136096,0.8995451270020567,0,96,344.4475746427779,89,343.5467408274999,1.0786516853932584,0.9498786755672781,0.050121324432721825,-2.9418877115971958
71,0,355.5391260306933,1.1325120810070075,1,7,357.69049831386656,54,356.55622702720575,0.12962962962962962,4.464380376489885e-08,0.9999999553561962,16.924550268072537,0,355.68854631850263,1.049051142996177,1,14,357.7571126745315,57,356.7065745227155,0.24561403508771928,9.214159905512886e-05,0.9999078584009449,9.292091898137942,1,352.41937638859963,1.5997820844640955,0,37,355.03899645077763,54,353.4374409383745,0.6851851851851852,0.23050567091590557,0.7694943290840944,1.205458118834361,1,346.94842718401924,0.7155194891383871,1,42,348.6670968878898,67,347.95026856235927,0.6268656716417911,0.011261984768748734,0.9887380152312513,4.474996523491804
72,1,360.19092063384596,1.0322507877717726,1,28,362.2434095958597,82,361.2091048870352,0.34146341463414637,3.907034695771472e-10,0.9999999996092965,21.663072233103794,1,360.25757568574045,1.0318995787529275,1,40,362.29292888590135,93,361.2596023476217,0.43010752688172044,4.2845922871848074e-06,0.9999957154077128,12.360480874688356,0,357.5392259811051,1.232435597165022,1,7,359.7751926316414,54,358.54110212478554,0.12962962962962962,0.012137818621341778,0.9878621813786582,4.399217111227331,1,351.16815644095186,0.8155121409799904,0,41,353.0030443384894,7,352.1862715584575,5.857142857142857,0.9997925740527354,0.0002074259472646147,-8.480528715180034
73,0,364.7436549285776,1.0154765064944513,0,53,366.76299987040693,15,365.74569067684934,3.533333333333333,0.9999765981479594,2.3401852040672753e-05,-10.662671989569414,1,364.7946011782624,0.8158167328801937,1,15,366.6296423593885,42,365.81238681508694,0.35714285714285715,0.004442642356781934,0.9955573576432181,5.412053413935239,1,362.2760744073312,0.9159757053712383,0,69,364.21167357231025,61,363.2940160931903,1.1311475409836065,0.8218580910330098,0.1781419089669902,-1.5289872674548783,0,355.50662042875774,1.1657848909962922,1,7,357.6896912046941,54,356.5227128350525,0.12962962962962962,7.056514643188905e-05,0.9999294348535681,9.55890364432936
74,0,369.2641001146985,0.9824656218406744,1,77,371.2653354697977,72,370.2816984927631,1.0694444444444444,0.01458659044676991,0.9854134095532301,4.212958614131595,1,369.1305245301337,0.8158404364949092,1,26,370.96582684642635,84,370.1486550550326,0.30952380952380953,1.7740406939026343e-06,0.9999982259593061,13.242248961231969,0,366.7121346082422,1.0145662864670157,1,15,368.74778923980193,42,367.73133377265185,0.35714285714285715,0.08354310823232336,0.9164568917676766,2.3951522655664577,0,360.19074443675345,0.9989704715553671,0,56,362.20944819488795,59,361.20921036828076,0.9491525423728814,0.6127036032842885,0.3872963967157115,-0.45869101782971
75,1,373.76627294905484,1.6991722686798312,1,54,376.4699848612654,78,374.76851254870417,0.6923076923076923,2.502859073327812e-06,0.9999974971409267,12.898074347342659,0,373.4664498573402,1.1986164181143977,1,6,375.668446810625,26,374.46854091406567,0.23076923076923078,0.029699102925029974,0.97030089707497,3.4864893857564025,1,371.248275164573,0.8488276175921783,1,40,373.11750095605385,93,372.2669453425333,0.43010752688172044,0.009647439023955706,0.9903525609760443,4.631368507919014,1,364.7107574263937,0.8822624025051482,1,66,366.6123853138415,59,365.7288666180102,1.11864406779661,0.9386177905243774,0.061382209475622604,-2.7272883122862686
76,1,378.9700421450543,0.8156057704472914,1,17,380.78926509211306,82,379.97190090612276,0.2073170731707317,1.8175239091533513e-11,0.9999999999818248,24.73096093760986,0,378.16990023927065,1.1161447123158723,0,87,380.30527967144735,85,379.1878648386337,1.0235294117647058,0.4811363933142804,0.5188636066857196,0.07549025651405486,1,375.6182934480021,0.7817131100455299,1,10,377.419902609603,44,376.6364310840145,0.22727272727272727,0.04230956545045095,0.957690434549549,3.1195113944690784,0,369.1135704962653,1.365499183011707,0,78,371.49855881824624,34,370.131784774072,2.2941176470588234,0.9999823059682269,1.7694031773114874e-05,-10.94226546901643
77,1,383.28991812758613,0.9990427676821128,1,53,385.3089304281748,55,384.307982677361,0.9636363636363636,0.011277426995105588,0.9887225730048944,4.47361066285798,1,382.80650594015606,1.2828311320627108,0,14,385.10847421200015,8,383.8243856014451,1.75,0.9349007915643724,0.06509920843562753,-2.6645280284467283,0,379.920918310876,1.6824817403103225,0,38,382.6234837566735,43,380.9392404403188,0.8837209302325582,0.48934244284973116,0.5106575571502688,0.04263668648373661,0,374.000016197504,1.2490889898035675,1,60,376.2687622271478,61,375.01842128968565,0.9836065573770492,0.7164087825575998,0.2835912174424003,-0.9267171033417486
78,0,387.80939778510947,1.2820627388427965,0,51,390.09510772518115,7,388.81119847222,7.285714285714286,0.9999980194437518,1.980556248197614e-06,-13.13213083872089,1,387.60910709941527,1.1322505507268943,0,46,389.74492465402,36,388.61135143978754,1.2777777777777777,0.946207738796643,0.05379226120335695,-2.8673325289631464,1,385.12438489031047,1.4323620368959382,1,24,387.56040677038254,69,386.1262918487773,0.34782608695652173,0.017465377748403288,0.9825346222515967,4.029915075149762,1,378.7696009412175,1.2154377115657553,0,62,380.9883433362702,43,379.771539109468,1.441860465116279,0.9952039357958907,0.004796064204109325,-5.335152052668309
79,1,392.5960590315517,1.265916999313049,0,62,394.88205776101677,43,393.614238544018,1.441860465116279,0.9293904606438358,0.0706095393561642,-2.5773636988732522,1,392.2455733438255,1.399351942294743,0,6,394.6479419703246,8,393.24728751264047,0.75,0.7121273047850789,0.2878726952149211,-0.9057383423768959,1,390.0611625216552,0.9655668964260258,0,52,392.0465970253572,68,391.07937363901874,0.7647058823529411,0.2782737908295504,0.7217262091704496,0.953040367164417,0,383.4897726662457,0.9158153106691316,0,62,385.4249973135884,17,384.50787040113937,3.6470588235294117,0.9999840736374332,1.5926362566743223e-05,-11.04751887218589
80,1,404.40497681783745,1.0821797558455728,1,25,406.5064304044936,37,405.422508430609,0.6756756756756757,0.004187517020821319,0.9958124829791787,5.47145100794166,1,404.1553631873103,1.0321109361830167,0,54,406.2059598081396,31,405.17253766511567,1.7419354838709677,0.9971174276540656,0.002882572345934357,-5.846185472847787,1,401.56976299511734,1.132393957755994,0,54,403.72127552487655,78,402.58729065727675,0.6923076923076923,0.15440612057848468,0.8455938794215153,1.7004529185238466,0,394.93189744540723,1.214474553358741,1,45,397.16604049532907,92,395.9502160192351,0.4891304347826087,9.260472908778627e-05,0.9999073952709122,9.287077738536514
81,1,409.0069605760509,0.8157444367534481,1,52,410.8426942987717,68,410.0250511998893,0.7647058823529411,6.30322284437268e-05,0.9999369677715563,9.671801365562384,0,408.7066796088475,0.8829000306432135,0,43,410.60897238366306,7,409.7247816894087,6.142857142857143,0.9999071240821413,9.287591785866572e-05,-9.284153292012832,0,406.22200954781147,0.8494976407382637,0,62,408.091229413345,17,407.23968180222437,3.6470588235294117,0.9933682191221477,0.0066317808778523476,-5.009228032979947,1,399.66720118391095,1.2491071626427583,0,14,401.91941668483196,8,400.6690176734701,1.75,0.894316371758938,0.10568362824106207,-2.1356096040120365
82,0,413.34333034668816,1.0658092267112806,1,68,415.4290486620157,63,414.3614209704683,1.0793650793650793,0.0349795872825599,0.9650204127174401,3.3173845833384354,1,413.1112352919299,1.199126441613771,0,12,415.3285305792815,9,414.12818458507536,1.3333333333333333,0.8787683296181534,0.12123167038184655,-1.9808179553663092,0,410.5912543021841,1.1317906999611296,0,56,412.72711096779676,59,411.59319286549,0.9491525423728814,0.583483719674876,0.416516280325124,-0.33709100092171224,1,404.42062043509213,1.7827347372076474,0,25,407.22287275566487,37,405.4388813300757,0.6756756756756757,0.14925966569180416,0.8507403343081958,1.7404194400092052
83,0,417.9296400679741,1.532768712437246,1,45,420.482945225609,42,418.94792624685215,1.0714285714285714,0.14362415156963482,0.8563758484303652,1.7855095261550775,1,417.829927514249,1.0321820471435785,1,10,419.8812664542929,44,418.84784786682576,0.22727272727272727,0.0009116682865289993,0.999088331713471,6.9993222708548135,1,415.2276257320191,0.8489959135185927,0,33,417.0968886592309,25,416.24612050299766,1.32,0.7601794921414684,0.23982050785853154,-1.153663819651563,1,409.7237734943046,1.4160685446695425,0,88,412.1596938436851,96,410.7422007098794,0.9166666666666666,0.39868793804630354,0.6013120619536965,0.41093503691509603
84,0,422.9826165350387,1.0157360614393838,0,80,425.00205984694185,60,423.9845361353946,1.3333333333333333,0.7621716691765814,0.23782833082341856,-1.1646227035976253,1,422.38241450098576,0.9989250396029092,1,25,424.40111865417566,37,423.40094048174797,0.6756756756756757,0.11988674964875079,0.8801132503512492,1.9935030485331222,0,419.5972098436323,1.6161767122684978,1,37,422.2171246210928,52,420.59906465403037,0.7115384615384616,0.2663165254566856,0.7336834745433144,1.0133921553305687,1,414.66050055786036,1.232421770109795,0,16,416.89596587623237,10,415.6623589238152,1.6,0.8956609486909023,0.10433905130909774,-2.149916230632765
85,1,427.5058642823715,1.1985761219402775,0,6,429.7219645108562,8,428.5211578757735,0.75,0.5506447142692721,0.44935528573072797,-0.20327594239516944,0,426.90227934275754,1.2659809991600923,0,80,429.1877613327233,60,427.92041737382533,1.3333333333333333,0.9888586177201607,0.011141382279839337,-4.485885057248868,0,424.7176504470408,1.0647615254856646,0,96,426.80332333035767,89,425.73670501913875,1.0786516853932584,0.8474121747295378,0.15258782527046225,-1.714446871555469,0,419.39691639249213,1.7994861049228348,1,28,422.21571741462685,41,420.4151235592435,0.6829268292682927,0.12579449280164445,0.8742055071983555,1.9386659162134052
86,1,432.22265507717384,1.149074609624222,1,42,434.3916059852927,67,433.2407701946795,0.6268656716417911,5.65829264409512e-06,0.9999943417073559,12.082382705933671,1,431.6891748602502,1.1658018786110915,0,53,433.87436316203093,40,432.7072611383628,1.325,0.9686358402012787,0.03136415979872131,-3.430222898022407,1,429.30593231186504,1.03282915672753,1,17,431.35633179731667,82,430.3217296077637,0.2073170731707317,0.0024152019004821668,0.9975847980995178,6.02355426948275,1,424.7173723242595,1.298829513892997,0,54,427.0360868280404,31,425.7359646752593,1.7419354838709677,0.9978853545051084,0.002114645494891579,-6.156751210726562
87,0,436.8918781821849,1.1818832231801935,1,38,439.07779971678974,43,437.8941549175652,0.8837209302325582,0.01604459604248276,0.9839554039575172,4.116208477134768,1,436.3750995553564,0.9992268660571426,1,4,438.37735811789753,22,437.3767110083136,0.18181818181818182,0.0497300747128806,0.9502699252871194,2.9501362010220156,1,433.857250313682,1.666405136405956,1,42,436.5426381211146,67,434.8750612344011,0.6268656716417911,0.127683951643213,0.872316048356787,1.9215937162101815,0,429.5373142819153,1.1490046838880517,0,71,431.70587091945345,69,430.5555554238963,1.0289855072463767,0.8408442010263564,0.1591557989736436,-1.6645227981616317
88,0,441.57848475221545,1.0660790532710962,0,60,443.66445985704195,40,442.5965572032146,1.5,0.9590969376112705,0.04090306238872959,-3.1547872164713033,1,440.87905806448543,1.0481018119608052,0,42,442.93034011573764,39,441.8809717389522,1.0769230769230769,0.7783194618754755,0.22168053812452446,-1.2558997312393476,0,439.04369964951184,0.965334600652568,0,55,441.0129785371246,60,440.0455809289706,0.9166666666666666,0.5335991355525431,0.4664008644474568,-0.13459938609004973,1,434.20711536094313,1.1651650405838154,1,28,436.39217882347293,82,435.22562277386896,0.34146341463414637,1.76169932721848e-05,0.9999823830067278,10.946628977764243
89,0,446.1649295843672,1.1324958834447898,0,62,448.3009861507453,17,447.1666994566913,3.6470588235294117,0.9999959465876513,4.05341234865968e-06,-12.415947422951053,1,445.43143838475225,1.132267143286299,0,94,447.5835122959106,46,446.4505379938055,2.0434782608695654,0.9999829602408262,1.703975917378384e-05,-10.97994412975253,0,443.5131894995575,2.016462973318994,0,28,446.5333150814986,18,444.5151952232118,1.5555555555555556,0.7847561610478191,0.21524383895218097,-1.2936015265160061,1,438.8935544251581,1.1329683761578053,1,17,441.04576147178886,82,439.91171141917584,0.2073170731707317,1.4526988518781536e-06,0.9999985473011481,13.442086001704487
90,0,450.80166605033446,1.0483917865203694,1,37,452.870887022058,52,451.8203761294717,0.7115384615384616,0.000409251674521105,0.9995907483254789,7.800770914597956,1,450.0849696751684,1.2660935915191658,0,87,452.3704046529019,89,451.10300854599336,0.9775280898876404,0.25892932266584334,0.7410706773341567,1.0515408627659009,1,449.0336461424595,1.0151154209743254,0,82,451.0533983919304,40,450.0362223339034,2.05,0.9928227946568781,0.0071772053431219465,-4.929642114281656,1,443.54617707576836,0.9155608915025368,1,14,445.464961663296,57,444.5480856144568,0.24561403508771928,0.0001786318749200655,0.9998213681250799,8.630004786617429
91,0,455.37147566268686,0.9825327821308747,1,12,457.3736311143148,23,456.38937626220286,0.5217391304347826,0.021893323600017056,0.9781066763999829,3.7994370082630944,1,454.8711615893408,1.3496050972607918,0,62,457.2401108382619,43,455.8892486576224,1.441860465116279,0.9907773127007273,0.00922268729927272,-4.676823340162086,0,453.55343671282753,1.2989318346371874,1,14,455.873121485929,57,454.571839829674,0.24561403508771928,0.019037834088532213,0.9809621659114678,3.9421056249246615,1,447.9660524261417,1.0147353725042194,1,15,449.98431213595904,42,448.9684871858335,0.35714285714285715,0.006014503487940526,0.9939854965120595,5.107548815142214
92,0,459.8742825695663,0.9656233901623636,0,62,461.86030847922666,16,460.89246366231237,3.875,0.9999972236050868,2.7763949131414404e-06,-12.794354489261735,0,459.7412944404059,1.1657647428801283,1,45,461.9262745451415,60,460.7591381511884,0.75,0.03883516308891111,0.9611648369110889,3.20881981930665,1,458.373174028995,1.9831557929865085,1,43,461.3758529362385,93,459.3914515165379,0.46236559139784944,0.013229443818882691,0.9867705561811173,4.31199260867972,0,452.4855024541612,1.1142831859178841,0,62,454.604339900834,17,453.4887383970781,3.6470588235294117,0.9999840736374332,1.5926362566743223e-05,-11.04751887218589
93,0,464.36047835537465,0.7816866409266368,0,12,466.14578098774655,3,465.3624204742373,4.0,0.977438805589157,0.02256119441084305,-3.7687043179505975,0,464.42747118428815,1.4827081891126,1,53,466.9294958708342,57,465.4454274873715,0.9298245614035088,0.32783527203755525,0.6721647279624448,0.7179921785479307,1,463.8771167357336,0.7826525645214133,0,41,465.67956777184736,7,464.8952089397353,5.857142857142857,0.9766590105588097,0.023340989441190393,-3.733926555823822,0,457.10559777438175,0.9491363181150518,0,45,459.07386649161344,42,458.12359160830965,1.0714285714285714,0.8453051302003551,0.1546948697996449,-1.698243068227453
94,0,468.6467330842861,0.949024120811373,1,53,470.5991555180517,57,469.64842196914833,0.9298245614035088,0.00532276816046251,0.9946772318395375,5.230424795479353,0,469.4306885593687,0.9320819387794472,0,62,471.38238803186687,16,470.44909483671654,3.875,0.9999871886331225,1.2811366877434413e-05,-11.265164932362035,1,468.17981310462346,1.8327845938620158,1,55,471.0162429244374,95,469.18165053235134,0.5789473684210527,0.03817855057743591,0.9618214494225641,3.2265549752263123,1,461.57525157474447,1.3159459177404642,0,87,463.91073048324324,89,462.59348442038754,0.9775280898876404,0.7109803568173203,0.2890196431826797,-0.9001501465862942
95,1,473.09974455367774,1.2155898099881597,1,72,475.3355942662456,51,474.1182725097751,1.411764705882353,0.9120635740529377,0.08793642594706236,-2.3390955750577826,0,473.88380353472894,1.3984828085522167,1,60,476.3026683196076,61,474.9028987980564,0.9836065573770492,0.4613020947842147,0.5386979052157853,0.15510180948867347,0,473.51673042948823,1.3494229742209427,0,60,475.8866570587852,70,474.5348688556114,0.8571428571428571,0.42716257645642197,0.572837423543578,0.29343726603008075,1,466.411731567292,0.79836136684753,1,15,468.2297878997633,56,467.4301978938747,0.26785714285714285,0.00027916212767598036,0.999720837872324,8.183438641035782
96,1,477.8364310049801,1.482058314140886,0,32,480.3224754825351,16,478.83842487679794,2.0,0.9881953778802711,0.011804622119728877,-4.427389269251712,0,478.8037258973345,1.1319684772752225,1,56,480.95532731577987,59,479.822211976978,0.9491525423728814,0.3666834697252287,0.6333165302747713,0.546471349397667,0,478.38668787351344,1.0826155078830197,0,78,480.48975291318493,34,479.4050135584548,2.2941176470588234,0.9938185727270761,0.006181427272923927,-5.080005472473967,0,470.73162019171286,1.1493270533974282,0,55,472.90016418730374,60,471.74949590244796,0.9166666666666666,0.503031180927151,0.49696881907284896,-0.012124872248762887
97,0,482.82322175236186,1.2992344511440024,1,60,485.1427560072625,61,483.84118082089117,0.9836065573770492,0.00822954320983782,0.9917704567901622,4.791761176053057,1,483.4564943253645,1.6325116858934052,1,69,486.09228936152067,61,484.4584806910134,1.1311475409836065,0.8609899485792569,0.13901005142074307,-1.8235365873398877,1,482.98965651832987,0.8818175640772097,1,43,484.875575603568,97,483.99160337791545,0.44329896907216493,0.009047980478349427,0.9909520195216506,4.696124535687296,1,475.401192530524,1.2492999522364698,0,46,477.67004206607817,40,476.41937638865784,1.15,0.9140811125379367,0.08591888746206328,-2.364515629943692
98,1,487.64277813071385,0.9322695926530287,1,40,489.57845828315476,93,488.64450533647323,0.43010752688172044,1.728210907714356e-10,0.9999999998271789,22.478764213758204,1,488.5939118762035,1.0985068282461725,1,17,490.71226695366204,82,489.6125812639948,0.2073170731707317,3.9957575936888645e-07,0.9999996004242406,14.732862054676225,0,487.37615397258196,0.8654778497293591,0,53,489.2615393306478,15,488.3944247440668,3.533333333333333,0.9858413026046868,0.014158697395313192,-4.2431662987658445,0,480.1711229524226,0.8489034692756832,0,80,482.0393452894641,60,481.18898404587526,1.3333333333333333,0.99661029901815,0.003389700981849971,-5.683618108390157
99,1,492.0793440094567,1.1658295328379609,1,88,494.26548677810933,96,493.09749310225016,0.9166666666666666,3.618459278165176e-05,0.9999638154072183,10.226840958250861,1,493.21345806191675,0.9317030754755251,1,15,495.1650583741721,56,494.2319706106791,0.26785714285714285,0.00014651583268909807,0.9998534841673109,8.828230535816305,0,491.7618447126588,1.1827954185428098,0,54,493.96468433062546,80,492.7801676321542,0.675,0.13095753479657557,0.8690424652034244,1.892518882027638,0,484.5402776329429,0.96524887252599,0,51,486.5254107051878,7,485.5589114653412,7.285714285714286,0.9999785363011104,2.1463698889561252e-05,-10.749126009636594
